time_launch_ms,filtered_altitude_ft,unfiltered_altitude_ft,pressure,temperature,acceleration_x_g,acceleration_y_g,acceleration_z_g,gyro_x_rate,gyro_y_rate,gyro_z_rate,max_altitude_ft,apogee_counter,event#,servo_x_state,servo_y_state,error_flag 
10,2.196676,4.417168,1015.73,-1,0.7412109, 15.99805, 0.2910156, 2.586875, -59.62594, 0.04718757,9.149079,1,1,False,False,177
130,-0.9300241,-4.056725,1016.041,50.99504,0.5981445, 15.97461, 0.3125, 48.165, -66.89156, -10.67156,9.149079,2,1,False,False,177
145,-0.6651616,-0.4002991,1015.906,-1,0.7783203, 13.33984, -0.03466797, 66.96188, -107.8759, -16.32781,9.149079,3,1,False,False,177
229,8.019146,16.70345,1015.278,-1,1.112793, 0.8500977, 1.905762, 83.36813, -161.8134, -59.90594,9.149079,4,1,False,False,177
296,5.438349,2.857552,1015.787,-1,2.127441, -1.366211, 2.233398, 82.165, -68.40719, -35.45281,9.149079,5,1,False,False,177
364,9.831874,14.2254,1015.369,-1,1.500977, -1.625488, 2.638184, 84.27438, 45.42094, -3.655937,9.149079,6,2,False,False,177
434,14.83594,19.84001,1015.163,49.80276,-0.5268555, -1.276367, 2.291504, 83.82125, 204.0616, 12.70344,9.831874,0,2,False,False,177
503,24.20027,33.5646,1014.66,-1,-1.838867, -0.9384766, 3.305176, 69.83688, 186.9991, 14.34406,14.83594,0,2,False,False,177
573,35.14688,46.09349,1014.201,49.40678,-0.675293, -0.8720703, 3.532715, 56.08688, -127.4697, -15.67156,24.20027,0,2,False,False,177
645,41.56462,47.98235,1014.131,-1,0.9506836, -1.389648, 2.97168, 52.8525, -117.6728, -37.81219,35.14688,0,2,False,False,177
814,57.09443,72.62424,1013.229,-1,0.01513672, -0.9189453, 2.52832, 63.415, 49.46781, -2.359062,41.56462,0,2,False,False,177
884,70.11003,83.12563,1012.844,-1,0.1821289, -0.8759766, 2.252441, 73.89938, 53.42094, 6.328438,57.09443,0,2,False,True,177
954,79.32549,88.54095,1012.645,-1,0.07177734, -0.5341797, 2.590332, 78.13375, -120.8603, 11.26594,70.11003,0,2,False,True,177
1027,84.05452,88.78355,1012.637,-1,0.96875, -0.5336914, 1.899414, 79.2275, -251.8134, -3.671562,79.32549,0,2,False,True,177
1098,89.3953,94.73608,1012.419,-1,1.210449, -0.5649414, 2.152344, 89.71188, -170.1572, -1.359062,84.05452,0,2,False,True,177
1169,95.67446,101.9536,1012.155,-1,1.018066, -0.5268555, 1.501953, 72.05563, -25.31344, 41.32844,89.3953,0,2,False,True,177
1241,100.9455,106.2166,1011.999,-1,0.171875, -0.5688477, 1.522461, 63.11813, 87.90531, -2.234062,95.67446,0,2,False,True,177
1317,107.0555,113.1655,1011.744,-1,0.3427734, -1.099121, 2.405762, 114.4619, 101.3272, -60.64031,100.9455,0,2,False,True,177
1392,111.4795,115.9035,1011.644,-1,0.3012695, -0.3774414, 1.678223, 103.7744, 63.42094, -87.85906,107.0555,0,2,False,True,177
1466,112.8207,114.1619,1011.708,-1,0.2431641, -0.1835938, 1.367188, 58.11813, -1.016562, -69.31219,111.4795,0,2,False,True,177
1542,116.9485,121.0762,1011.455,-1,0.09179688, -0.2866211, 0.6591797, 14.77437, -25.90719, -59.23406,112.8207,0,2,False,True,177
1618,118.6311,120.3137,1011.483,-1,0.2734375, -0.2998047, 0.7490234, -8.100625, 43.74906, -67.74969,116.9485,0,2,False,True,177
1805,122.9772,127.3233,1011.226,-1,0.2495117, -0.1884766, 0.3764648, 16.13375, 167.3584, -29.74969,118.6311,0,2,False,True,177
1884,124.7517,126.5262,1011.256,47.8726,0.1748047, -0.1855469, 0.34375, 23.71188, 171.9053, -17.59344,122.9772,0,2,False,True,177
1964,125.6389,126.5262,1011.256,47.89082,0.1953125, -0.2148438, 0.34375, 26.02438, 173.0303, -6.093437,124.7517,0,2,False,True,177
2045,125.4977,125.3565,1011.298,-1,0.1318359, -0.1816406, 0.2451172, 27.99313, 134.1241, 1.765938,125.6389,0,2,False,True,177
2125,125.2105,124.9232,1011.314,-1,0.0078125, -0.1791992, 0.3652344, 28.99313, 98.70219, 5.422188,125.6389,1,2,False,True,177
2206,124.0488,122.8871,1011.389,-1,0.1083984, -0.1928711, 0.3779297, 30.07125, 70.43656, 5.828438,125.6389,2,2,False,True,177
2289,123.2946,122.5405,1011.401,-1,0.1450195, -0.2412109, 0.2910156, 31.49313, 45.13969, 5.922188,125.6389,3,2,False,True,177
2370,121.0027,118.7108,1011.541,-1,0.152832, -0.2075195, 0.3300781, 31.33688, 23.17094, 7.109688,125.6389,4,2,False,True,177
2452,120.1384,119.274,1011.521,-1,0.2836914, -0.1875, 0.3623047, 31.44625, 8.280313, 10.17219,125.6389,5,3,True,True,177
2587,117.2888,114.4392,1011.698,48.12302,0.3735352, -0.2060547, 0.3525391, 33.79, 9.702188, 17.71906,125.6389,5,3,True,True,177
2653,114.7029,112.1171,1011.783,-1,0.3574219, -0.2182617, 0.3959961, 36.80563, 12.88969, 22.23469,125.6389,5,3,True,True,177
2715,110.8193,106.9357,1011.972,-1,0.3852539, -0.2666016, 0.4125977, 38.9775, 3.920938, 24.39094,125.6389,5,3,True,True,177
2888,104.7142,98.60912,1012.277,-1,0.2514648, -0.3310547, 0.4755859, 46.9775, -62.95406, 28.51594,125.6389,5,3,True,True,177
2962,99.89844,95.08266,1012.406,47.97277,0.4921875, -0.2099609, 0.3935547, 58.7275, -60.45406, 29.81281,125.6389,5,3,True,True,177
3026,98.17938,96.46032,1012.356,-1,0.3979492, -0.2900391, 0.5600586, 79.29, -87.43844, 26.62531,125.6389,5,3,True,True,177
3092,93.3645,88.54961,1012.645,47.60851,0.5136719, -0.2172852, 0.7216797, 87.74313, -107.0009, 19.73469,125.6389,5,3,True,True,177
3157,87.5909,81.81729,1012.892,-1,0.5175781, -0.4604492, 0.8242188, 82.33688, -86.90719, 24.71906,125.6389,5,3,True,True,177
3226,86.25504,84.91918,1012.778,-1,0.4936523, -0.2714844, 0.8925781, 72.1025, -18.00094, 36.46906,125.6389,5,3,True,True,177
3297,83.26069,80.26634,1012.949,-1,0.4179688, -0.4248047, 0.8642578, 75.415, 36.24906, 53.65656,125.6389,5,3,True,True,177
3366,83.19749,83.13429,1012.844,-1,0.3198242, -0.4360352, 1.079102, 65.07125, 48.96781, 62.32844,125.6389,5,3,True,True,177
3435,77.82422,72.45094,1013.235,-1,-0.01708984, -0.4130859, 1.288086, 53.38375, -5.094687, 62.21906,125.6389,5,3,True,True,177
3506,72.88481,67.9454,1013.4,-1,0.1943359, -0.4770508, 1.188965, 50.30563, -92.32906, 50.31281,125.6389,5,3,True,True,177
3576,69.55732,66.22983,1013.463,-1,0.1694336, -0.4282227, 1.227051, 59.57125, -149.3134, 39.12531,125.6389,5,3,True,True,177
3647,66.22132,62.88532,1013.585,-1,0.3754883, -0.512207, 1.06543, 63.19625, -217.6259, 21.50031,125.6389,5,3,True,True,177
3830,62.13592,58.05052,1013.762,-1,0.6245117, -0.4882813, 1.166504, 55.7275, -50.64156, 30.53156,125.6389,5,3,True,True,177
3904,58.71556,55.2952,1013.864,45.23093,0.574707, -0.3720703, 0.9511719, 59.04, 60.20219, 21.06281,125.6389,5,3,True,True,177
3978,55.0472,51.37885,1014.007,45.07147,0.03027344, -0.4599609, 0.8837891, 34.46188, 137.3584, 22.62531,125.6389,5,3,True,True,177
4050,50.99491,46.94261,1014.17,-1,0.0234375, -0.3481445, 1.126465, 25.4775, 130.4991, 24.46906,125.6389,5,3,True,True,177
4123,50.38974,49.78457,1014.065,44.77076,-0.2172852, -0.4599609, 1.029785, 13.04, 67.84281, 23.73469,125.6389,5,3,True,True,177
4200,48.31093,46.23212,1014.195,-1,0.01660156, -0.5073242, 0.8505859, 20.64938, -24.61031, 7.281563,125.6389,5,3,True,True,177
4274,44.16096,40.011,1014.424,-1,0.02148438, -0.4555664, 0.8569336, 29.52438, -106.8134, -0.7653124,125.6389,5,3,True,True,177
4354,40.40507,36.64917,1014.547,-1,0.3852539, -0.5253906, 0.840332, 35.665, -179.0791, -11.89031,125.6389,5,3,True,True,177
4434,36.43897,32.47287,1014.7,44.28319,0.4536133, -0.5288086, 0.7719727, 37.36813, -139.8291, -4.296562,125.6389,5,3,True,True,177
4515,36.97729,37.51562,1014.515,-1,0.6132813, -0.4418945, 0.9379883, 36.55563, -48.00094, 11.87531,125.6389,5,3,True,True,177
4594,31.77915,26.581,1014.916,-1,0.637207, -0.4697266, 0.9223633, 34.82125, -34.89156, 33.95344,125.6389,5,3,True,True,177
4674,26.6587,21.53825,1015.101,-1,0.3066406, -0.59375, 0.9174805, 40.08688, 11.04594, 62.18781,125.6389,5,3,True,True,177
4863,20.20811,13.75751,1015.387,43.69531,-0.0009765625, -0.7075195, 1.23877, 41.25875, 47.42094, 63.48469,125.6389,5,3,True,True,177
4947,17.13877,14.06944,1015.375,43.57225,-0.04833984, -0.5820313, 1.356445, 27.77438, -27.73531, 40.70344,125.6389,5,3,True,True,177
5032,13.12605,9.113335,1015.557,43.47654,-0.3696289, -1.300781, 0.7875977, 58.55563, 121.2491, 49.59406,125.6389,5,3,True,True,177
5117,18.14662,23.16718,1015.041,43.38995,-1.964844, -3.297363, 1.801758, 108.2744, 519.9366, 214.9534,125.6389,5,3,True,True,177
5202,21.40205,24.65748,1014.987,-1,-3.492188, -0.7651367, -3.630859, -277.5225, 519.9366, 377.8284,125.6389,5,3,True,True,177
5333,16.37541,11.34878,1015.475,-1,1.402344, 0.7543945, -0.5205078, 9.38375, 259.9991, -5.296562,125.6389,5,3,True,True,177
5397,11.42737,6.479324,1015.654,-1,0.6875, 0.04150391, -1.989746, 143.2275, -353.3603, 78.32844,125.6389,5,3,True,True,177
5463,4.534443,-2.358482,1015.978,-1,-4.035645, 8.319824, -15.99902, 190.4306, -504.0166, -7.234062,125.6389,5,3,True,True,177
5527,1.399904,-1.734634,1015.955,43.64518,-0.6928711, 0.4394531, 1.933594, -31.24125, 191.0459, 73.26594,125.6389,5,4,True,True,177
5593,0.5864459,-0.2270126,1015.9,-1,-0.2905273, 0.008300781, 0.3574219, -14.25688, 198.4209, 96.81281,125.6389,5,4,True,True,177
5662,0.7602411,0.9340363,1015.857,43.80469,0.2089844, 0.06591797, 0.07714844, -22.05375, 215.4522, 96.81281,125.6389,5,4,True,True,177
5727,2.978608,5.196976,1015.701,-1,-0.01367188, -0.09423828, -0.3637695, -26.67875, 204.1553, 76.78156,125.6389,5,4,True,True,177
5904,2.320229,1.66185,1015.83,-1,0.02050781, -0.3041992, -0.9082031, -36.585, -248.7197, 14.67219,125.6389,5,4,True,True,177
5972,1.696446,1.072662,1015.852,-1,-0.07324219, 0.04931641, -1.455078, -40.74125, -308.5009, 17.42219,125.6389,5,4,True,True,177
6048,0.310156,-1.076134,1015.931,-1,-0.8061523, 0.07910156, -0.8476563, 12.86812, -71.07906, -9.484062,125.6389,5,4,True,True,177
6117,0.7000762,1.089996,1015.851,-1,-0.4555664, 0.06982422, -0.8745117, -2.67875, 54.32719, 2.531563,125.6389,5,4,True,True,177
6186,-0.006075353,-0.7122269,1015.918,-1,-0.3051758, 0.06005859, -0.9741211, -2.600625, 102.1241, 0.6096876,125.6389,5,4,True,True,177
6256,-0.2551777,-0.5042801,1015.91,-1,-0.1972656, 0.02783203, -0.9238281, -0.850625, 1.295938, -0.6871874,125.6389,5,4,True,True,177
6331,1.153894,2.562965,1015.797,44.3561,-0.3994141, 0.02148438, -0.9526367, -1.55375, -25.65719, 0.3596876,125.6389,5,4,True,True,177
6405,0.7840278,0.4141617,1015.876,44.41079,-0.3266602, 0.04052734, -0.934082, -0.05375004, 9.702188, -0.3903124,125.6389,5,4,True,True,177
6480,0.6684116,0.5527954,1015.871,-1,-0.2592773, 0.03515625, -0.9599609, -0.17875, -1.750937, 0.07843757,125.6389,5,4,True,True,177
6555,1.529042,2.389671,1015.804,44.46547,-0.3212891, 0.005371094, -0.9829102, -0.131875, 9.780313, -0.5621874,125.6389,5,4,True,True,177
6631,0.5816976,-0.3656464,1015.905,-1,-0.3007813, 0.01025391, -0.9741211, 0.118125, -2.657187, 0.4221876,125.6389,5,4,True,True,177
6707,1.295064,2.00843,1015.818,-1,-0.2895508, 0.05664063, -0.8427734, -0.11625, 0.8740625, 0.1721876,125.6389,5,4,True,True,177
6890,1.149207,1.003349,1015.855,-1,-0.3295898, 0.03564453, -0.9189453, 0.03999996, -0.8290625, 0.3128126,125.6389,5,4,True,True,177
6965,1.076278,1.003349,1015.855,-1,-0.2973633, 0.03515625, -0.9204102, 0.08687496, 0.1396875, 0.1253126,125.6389,5,4,True,True,177
7043,1.750305,2.424332,1015.803,44.53837,-0.3076172, 0.03466797, -0.9213867, 0.008749962, -4.579062, 0.5159376,125.6389,5,4,True,True,177
7119,1.506794,1.263283,1015.845,-1,-0.3144531, 0.0390625, -0.9165039, 0.05562496, 0.6865625, 0.07843757,125.6389,5,4,True,True,177
7198,3.247911,4.989029,1015.708,-1,-0.3173828, 0.03662109, -0.9174805, 0.008749962, -2.016562, 0.2659376,125.6389,5,4,True,True,177
7279,0.401391,-2.445129,1015.981,44.55204,-0.3115234, 0.03759766, -0.9165039, 0.03999996, -0.9071875, 0.1721876,125.6389,5,4,True,True,177
7359,0.9709706,1.54055,1015.835,44.53837,-0.3129883, 0.03808594, -0.9160156, -0.006875038, -0.2509375, 0.1409376,125.6389,5,4,True,True,177
7443,0.7185595,0.4661484,1015.874,44.56115,-0.3134766, 0.03613281, -0.9165039, 0.008749962, -0.5478125, 0.1878126,125.6389,5,4,True,True,177
7525,1.207535,1.69651,1015.829,-1,-0.3129883, 0.03759766, -0.9140625, 0.02437496, -0.4384375, 0.1721876,125.6389,5,4,True,True,177
7608,2.604404,4.001274,1015.745,-1,-0.3129883, 0.03613281, -0.9150391, -0.006875038, -0.4071875, 0.1878126,125.6389,5,4,True,True,177
7693,2.453714,2.303024,1015.807,44.58849,-0.3134766, 0.03710938, -0.9155273, 0.008749962, -0.5321875, 0.1721876,125.6389,5,4,True,True,177
7777,2.68163,2.909546,1015.784,44.59305,-0.3139648, 0.03808594, -0.9165039, 0.02437496, -0.5634375, 0.1721876,125.6389,5,4,True,True,177
8018,1.374606,0.06758118,1015.889,-1,-0.3149414, 0.03662109, -0.9150391, 0.02437496, -0.4853125, 0.1878126,125.6389,5,4,True,True,177
8081,2.142076,2.909546,1015.784,-1,-0.3134766, 0.03710938, -0.9169922, -0.02250004, -0.3446875, 0.1878126,125.6389,5,4,True,True,177
8147,1.382092,0.6221085,1015.869,44.59761,-0.3125, 0.03613281, -0.9135742, 0.07124996, -0.3134375, 0.1409376,125.6389,5,4,True,True,177
8213,1.573958,1.765823,1015.827,-1,-0.3129883, 0.03710938, -0.9145508, 0.008749962, -0.4071875, 0.1253126,125.6389,5,4,True,True,177
8281,0.2142516,-1.145454,1015.934,44.59305,-0.3134766, 0.03759766, -0.9150391, 0.02437496, -0.3915625, 0.1253126,125.6389,5,4,True,True,177
8348,0.1062599,-0.001731873,1015.891,-1,-0.3134766, 0.03759766, -0.9150391, -0.02250004, -0.4540625, 0.1721876,125.6389,5,4,True,True,177
8416,0.3208606,0.5354614,1015.872,44.57483,-0.3125, 0.03564453, -0.9150391, 0.05562496, -0.4228125, 0.1878126,125.6389,5,4,True,True,177
8486,-0.1436964,-0.6082535,1015.914,44.56571,-0.3134766, 0.03808594, -0.9145508, 0.008749962, -0.3915625, 0.1721876,125.6389,5,4,True,True,177
8557,0.9063737,1.956444,1015.82,44.56571,-0.3120117, 0.03808594, -0.9165039, 0.05562496, -0.4228125, 0.1253126,125.6389,5,4,True,True,177
8626,0.4176606,-0.07105255,1015.894,44.5566,-0.3125, 0.03662109, -0.9130859, -0.006875038, -0.3915625, 0.1721876,125.6389,5,4,True,True,177
8696,0.2686142,0.1195679,1015.887,-1,-0.3129883, 0.03515625, -0.9169922, 0.02437496, -0.4228125, 0.1409376,125.6389,5,4,True,True,177
8768,0.6359818,1.003349,1015.855,-1,-0.3129883, 0.03808594, -0.9165039, 0.03999996, -0.3915625, 0.1565626,125.6389,5,4,True,True,177
8946,0.6463753,0.6567688,1015.867,-1,-0.3134766, 0.03564453, -0.9150391, 0.008749962, -0.4540625, 0.1721876,125.6389,5,4,True,True,177
9020,1.630664,2.614952,1015.795,44.53382,-0.3144531, 0.03759766, -0.9155273, 0.05562496, -0.4696875, 0.1721876,125.6389,5,4,True,True,177
9090,1.550947,1.47123,1015.838,-1,-0.3139648, 0.03662109, -0.9125977, -0.05375004, -0.4696875, 0.1253126,125.6389,5,4,True,True,177
9172,2.351546,3.152145,1015.776,-1,-0.3125, 0.03564453, -0.9135742, -0.02250004, -0.4540625, 0.1565626,125.6389,5,4,True,True,177
9247,2.751846,3.152145,1015.776,-1,-0.3125, 0.03662109, -0.9116211, 0.05562496, -0.3759375, 0.1253126,125.6389,5,4,True,True,177
9322,2.380138,2.00843,1015.818,-1,-0.3129883, 0.03710938, -0.9130859, 0.05562496, -0.3759375, 0.2190626,125.6389,5,4,True,True,177
9397,1.041906,-0.2963257,1015.902,-1,-0.3129883, 0.03515625, -0.9121094, -0.02250004, -0.4540625, 0.1721876,125.6389,5,4,True,True,177
9475,-0.199071,-1.440048,1015.945,44.49736,-0.3125, 0.03710938, -0.9135742, 0.05562496, -0.4071875, 0.1721876,125.6389,5,4,True,True,177
9552,1.745138,3.689346,1015.756,-1,-0.3125, 0.03759766, -0.9121094, -0.05375004, -0.4071875, 0.1878126,125.6389,5,4,True,True,177
9630,0.4211452,-0.9028473,1015.925,-1,-0.3120117, 0.03662109, -0.9121094, 0.008749962, -0.3915625, 0.1565626,125.6389,5,4,True,True,177
9709,-0.240851,-0.9028473,1015.925,-1,-0.3120117, 0.03613281, -0.9106445, -0.02250004, -0.4540625, 0.1878126,125.6389,5,4,True,True,177
9785,0.8837897,2.00843,1015.818,-1,-0.3149414, 0.03710938, -0.9111328, 0.02437496, -0.3290625, 0.1565626,125.6389,5,4,True,True,177
9975,0.293732,-0.2963257,1015.902,-1,-0.3134766, 0.03710938, -0.9086914, -0.006875038, -0.3759375, 0.1721876,125.6389,5,4,True,True,177
10058,0.2673037,0.2408752,1015.883,44.50648,-0.3134766, 0.03808594, -0.9101563, 0.02437496, -0.3290625, 0.1565626,125.6389,5,4,True,True,177
10143,0.8259469,1.38459,1015.84,44.49281,-0.3129883, 0.03759766, -0.9091797, -0.02250004, -0.3446875, 0.1878126,125.6389,5,4,True,True,177
10224,0.360117,-0.1057129,1015.895,-1,-0.3134766, 0.03808594, -0.9086914, -0.05375004, -0.3759375, 0.1878126,125.6389,5,4,True,True,177
10307,0.2658358,0.1715546,1015.885,44.48369,-0.3134766, 0.03710938, -0.909668, -0.02250004, -0.3915625, 0.1878126,125.6389,5,4,True,True,177
10390,-0.795053,-1.855942,1015.96,-1,-0.3134766, 0.03808594, -0.9086914, 0.02437496, -0.3915625, 0.1409376,125.6389,5,4,True,True,177
10523,0.2254517,1.245956,1015.846,-1,-0.3134766, 0.03759766, -0.9091797, 0.008749962, -0.3603125, 0.1721876,125.6389,5,4,True,True,177
10587,0.1551796,0.08490753,1015.888,44.46547,-0.3144531, 0.03662109, -0.9091797, 0.05562496, -0.4071875, 0.1409376,125.6389,5,4,True,True,177
10652,-0.4518139,-1.058807,1015.93,-1,-0.3125, 0.03857422, -0.9086914, 0.008749962, -0.3915625, 0.1878126,125.6389,5,4,True,True,177
10718,-0.9286009,-1.405388,1015.943,-1,-0.3134766, 0.03759766, -0.9077148, -0.02250004, -0.3759375, 0.1253126,125.6389,5,4,True,True,177
10783,-0.4565032,0.01559448,1015.891,-1,-0.3125, 0.03662109, -0.9077148, 0.03999996, -0.3759375, 0.1096876,125.6389,5,4,True,True,177
10852,-0.7923118,-1.12812,1015.933,-1,-0.3134766, 0.03759766, -0.9086914, 0.05562496, -0.3759375, 0.1409376,125.6389,5,4,True,True,177
11028,-0.6916156,-0.5909195,1015.913,-1,-0.3129883, 0.03662109, -0.9106445, 0.05562496, -0.4540625, 0.2034376,125.6389,5,4,True,True,177
11093,-1.256449,-1.821281,1015.958,-1,-0.3134766, 0.03710938, -0.9082031, 0.03999996, -0.4071875, 0.1253126,125.6389,5,4,True,True,177
11161,-0.3864869,0.4834747,1015.874,44.4199,-0.3134766, 0.03613281, -0.909668, 0.05562496, -0.4228125, 0.1721876,125.6389,5,4,True,True,177
11227,-1.268511,-2.150536,1015.971,-1,-0.3129883, 0.03564453, -0.9082031, 0.02437496, -0.3603125, 0.1721876,125.6389,5,4,True,True,177
11296,-0.1585743,0.9513626,1015.857,-1,-0.3125, 0.03662109, -0.9082031, 0.02437496, -0.3759375, 0.2034376,125.6389,5,4,True,True,177
11367,-0.4873873,-0.8162003,1015.921,44.39256,-0.3129883, 0.03662109, -0.9101563, 0.02437496, -0.3759375, 0.1409376,125.6389,5,4,True,True,177
11438,-0.51316,-0.5389328,1015.912,-1,-0.3134766, 0.03808594, -0.9077148, -0.006875038, -0.3759375, 0.1878126,125.6389,5,4,True,True,177
11511,0.8949322,2.303024,1015.807,44.37433,-0.3134766, 0.03564453, -0.909668, -0.03812504, -0.3915625, 0.1721876,125.6389,5,4,True,True,177
11585,0.8884871,0.8820419,1015.859,44.37433,-0.3125, 0.03710938, -0.9091797, -0.02250004, -0.3446875, 0.1409376,125.6389,5,4,True,True,177
11661,1.283836,1.679184,1015.83,44.3561,-0.3125, 0.03710938, -0.9091797, -0.006875038, -0.4071875, 0.2190626,125.6389,5,4,True,True,177
11735,0.7710186,0.2582016,1015.882,44.36066,-0.3120117, 0.03710938, -0.9082031, 0.02437496, -0.4228125, 0.1409376,125.6389,5,4,True,True,177
11811,-0.3691714,-1.509361,1015.947,-1,-0.3120117, 0.03662109, -0.9086914, 0.008749962, -0.3759375, 0.1721876,125.6389,5,4,True,True,177
11996,1.018913,2.406998,1015.803,-1,-0.3144531, 0.03662109, -0.9072266, 0.02437496, -0.4228125, 0.1253126,125.6389,5,4,True,True,177
12072,1.106441,1.19397,1015.848,-1,-0.3115234, 0.03808594, -0.9091797, 0.07124996, -0.3603125, 0.1409376,125.6389,5,4,True,True,177
12150,-0.002176285,-1.110794,1015.932,44.31053,-0.3120117, 0.03662109, -0.9086914, -0.02250004, -0.3290625, 0.1253126,125.6389,5,4,True,True,177
12234,0.4226065,0.8473892,1015.86,44.2923,-0.3125, 0.03564453, -0.909668, 0.02437496, -0.3759375, 0.1721876,125.6389,5,4,True,True,177
12311,0.4617076,0.5008087,1015.873,-1,-0.3120117, 0.03808594, -0.9116211, 0.02437496, -0.3759375, 0.1096876,125.6389,5,4,True,True,177
12390,2.04087,3.620033,1015.759,44.26952,-0.3129883, 0.03613281, -0.9091797, 0.02437496, -0.4071875, 0.1721876,125.6389,5,4,True,True,177
12470,1.94667,1.85247,1015.824,-1,-0.3120117, 0.03759766, -0.9086914, -0.006875038, -0.4071875, 0.1096876,125.6389,5,4,True,True,177
12551,1.760941,1.575211,1015.833,-1,-0.3125, 0.03759766, -0.9086914, 0.02437496, -0.3915625, 0.1721876,125.6389,5,4,True,True,177
12630,1.945339,2.129738,1015.814,-1,-0.3134766, 0.03808594, -0.9101563, 0.05562496, -0.2978125, 0.1721876,125.6389,5,4,True,True,177
12714,1.725615,1.50589,1015.836,-1,-0.3125, 0.03759766, -0.9091797, -0.02250004, -0.3603125, 0.1721876,125.6389,5,4,True,True,177
12796,1.581096,1.436577,1015.839,-1,-0.3134766, 0.03662109, -0.9101563, 0.02437496, -0.3446875, 0.1096876,125.6389,5,4,True,True,177
12881,1.508836,1.436577,1015.839,-1,-0.3115234, 0.03662109, -0.9086914, 0.03999996, -0.3446875, 0.1721876,125.6389,5,4,True,True,177
13123,-0.1562226,-1.821281,1015.958,44.21028,-0.3120117, 0.03662109, -0.9091797, -0.006875038, -0.3290625, 0.1878126,125.6389,5,4,True,True,177
13188,-0.2782608,-0.4002991,1015.906,-1,-0.3120117, 0.03759766, -0.9086914, 0.02437496, -0.4540625, 0.1878126,125.6389,5,4,True,True,177
13253,0.9430649,2.164391,1015.812,-1,-0.3134766, 0.03759766, -0.9101563, -0.006875038, -0.3759375, 0.1096876,125.6389,5,4,True,True,177
13317,1.120504,1.297943,1015.844,44.19205,-0.3129883, 0.03710938, -0.909668, -0.006875038, -0.3915625, 0.1878126,125.6389,5,4,True,True,177
13383,1.781081,2.441658,1015.802,44.19205,-0.3134766, 0.03662109, -0.9101563, 0.03999996, -0.3134375, 0.1565626,125.6389,5,4,True,True,177
13448,1.227588,0.6740952,1015.867,-1,-0.3129883, 0.03759766, -0.9067383, -0.006875038, -0.3603125, 0.1878126,125.6389,5,4,True,True,177
13517,0.3789842,-0.4696198,1015.909,44.18294,-0.3129883, 0.03759766, -0.9072266, 0.008749962, -0.3603125, 0.1253126,125.6389,5,4,True,True,177
13588,0.6651734,0.9513626,1015.857,44.17382,-0.3125, 0.03759766, -0.9086914, 0.02437496, -0.3134375, 0.1096876,125.6389,5,4,True,True,177
13657,0.2277436,-0.2096863,1015.899,-1,-0.3120117, 0.03759766, -0.909668, 0.03999996, -0.3915625, 0.2190626,125.6389,5,4,True,True,177
13728,0.1476624,0.06758118,1015.889,44.16471,-0.3134766, 0.03613281, -0.9082031, 0.008749962, -0.3603125, 0.2034376,125.6389,5,4,True,True,177
13798,0.6448227,1.141983,1015.85,-1,-0.3115234, 0.03710938, -0.9082031, -0.02250004, -0.3759375, 0.1721876,125.6389,5,4,True,True,177
13871,1.603894,2.562965,1015.797,44.15104,-0.3129883, 0.03662109, -0.9077148, -0.006875038, -0.3759375, 0.09406257,125.6389,5,4,True,True,177
14052,1.338278,1.072662,1015.852,44.12825,-0.3129883, 0.03710938, -0.9072266, 0.07124996, -0.3446875, 0.1721876,125.6389,5,4,True,True,177
14123,0.4603226,-0.4176331,1015.907,-1,-0.3125, 0.03662109, -0.9091797, 0.02437496, -0.3446875, 0.1409376,125.6389,5,4,True,True,177
14192,1.875551,3.290779,1015.771,-1,-0.3125, 0.03710938, -0.90625, 0.05562496, -0.3759375, 0.1721876,125.6389,5,4,True,True,177
14266,-0.3281128,-2.531776,1015.984,44.10547,-0.3129883, 0.03759766, -0.9082031, -0.006875038, -0.3290625, 0.1096876,125.6389,5,4,True,True,177
14340,1.14342,2.614952,1015.796,-1,-0.3120117, 0.0390625, -0.9072266, -0.02250004, -0.4853125, 0.1721876,125.6389,5,4,True,True,177
14416,-0.4255779,-1.994576,1015.964,-1,-0.3120117, 0.03613281, -0.9111328, -0.006875038, -0.3915625, 0.1409376,125.6389,5,4,True,True,177
14493,-0.09235135,0.2408752,1015.883,-1,-0.3120117, 0.03564453, -0.909668, 0.07124996, -0.3446875, 0.1878126,125.6389,5,4,True,True,177
14567,0.9147199,1.921791,1015.821,-1,-0.3129883, 0.03613281, -0.9116211, 0.05562496, -0.3759375, 0.1721876,125.6389,5,4,True,True,177
14642,0.5431372,0.1715546,1015.885,-1,-0.3120117, 0.03662109, -0.9121094, 0.008749962, -0.3446875, 0.1878126,125.6389,5,4,True,True,177
14720,0.3573459,0.1715546,1015.885,44.05534,-0.3129883, 0.03564453, -0.9111328, 0.03999996, -0.4228125, 0.1721876,125.6389,5,4,True,True,177
14800,-0.4806975,-1.318741,1015.94,44.04167,-0.3110352, 0.03759766, -0.9086914, 0.05562496, -0.3915625, 0.1721876,125.6389,5,4,True,True,177
14880,0.2439957,0.968689,1015.856,44.03255,-0.3120117, 0.03613281, -0.9106445, 0.02437496, -0.4071875, 0.2034376,125.6389,5,4,True,True,177
15070,1.420807,2.597618,1015.796,-1,-0.3129883, 0.03759766, -0.9077148, 0.05562496, -0.3446875, 0.1721876,125.6389,5,4,True,True,177
15152,0.6835442,-0.05371857,1015.893,-1,-0.3139648, 0.03710938, -0.9052734, -0.006875038, -0.3603125, 0.1409376,125.6389,5,4,True,True,177
15234,1.909182,3.134819,1015.776,43.99154,-0.3120117, 0.03662109, -0.9077148, 0.008749962, -0.3603125, 0.1721876,125.6389,5,4,True,True,177
15323,1.776853,1.644524,1015.831,-1,-0.3125, 0.03662109, -0.9101563, 0.008749962, -0.3759375, 0.1721876,125.6389,5,4,True,True,177
15404,1.979289,2.181725,1015.811,43.98243,-0.3129883, 0.03613281, -0.9086914, 0.118125, -0.3446875, 0.1096876,125.6389,5,4,True,True,177
15486,2.349107,2.718925,1015.792,-1,-0.3134766, 0.0390625, -0.9091797, 0.08687496, -0.4228125, 0.1721876,125.6389,5,4,True,True,177
15619,-0.5158953,-3.380898,1016.015,-1,-0.3120117, 0.03662109, -0.9135742, -0.02250004, -0.4071875, 0.1721876,125.6389,5,4,True,True,177
15684,0.7982543,2.112404,1015.814,43.95052,-0.3110352, 0.03808594, -0.9086914, 0.008749962, -0.3290625, 0.1409376,125.6389,5,4,True,True,177
15749,0.3982612,-0.001731873,1015.891,-1,-0.3125, 0.03710938, -0.9091797, 0.02437496, -0.3134375, 0.1253126,125.6389,5,4,True,True,177
15818,1.757877,3.117493,1015.777,43.93229,-0.3115234, 0.03710938, -0.9086914, 0.03999996, -0.3603125, 0.2034376,125.6389,5,4,True,True,177
15883,1.285303,0.8127289,1015.862,43.91862,-0.3125, 0.03662109, -0.909668, 0.02437496, -0.4384375, 0.09406257,125.6389,5,4,True,True,177
15953,2.877229,4.469154,1015.728,43.91407,-0.3129883, 0.03759766, -0.9101563, -0.006875038, -0.3603125, 0.1565626,125.6389,5,4,True,True,177
16133,0.6232839,-1.630661,1015.951,-1,-0.3110352, 0.03857422, -0.9086914, -0.03812504, -0.3603125, 0.1253126,125.6389,5,4,True,True,177
16202,0.7873232,0.9513626,1015.857,43.87305,-0.3125, 0.03613281, -0.9086914, 0.008749962, -0.3446875, 0.1096876,125.6389,5,4,True,True,177
16270,2.108368,3.429413,1015.765,-1,-0.3129883, 0.03808594, -0.9077148, 0.02437496, -0.3134375, 0.1409376,125.6389,5,4,True,True,177
16339,2.604263,3.100159,1015.778,-1,-0.3120117, 0.03710938, -0.9086914, -0.006875038, -0.4071875, 0.1409376,125.6389,5,4,True,True,177
16412,1.968433,1.332603,1015.842,43.8457,-0.3129883, 0.03759766, -0.9106445, 0.02437496, -0.3603125, 0.2034376,125.6389,5,4,True,True,177
16483,1.789148,1.609863,1015.833,-1,-0.3115234, 0.03759766, -0.9101563, 0.07124996, -0.3915625, 0.1409376,125.6389,5,4,True,True,177
16555,2.981854,4.174561,1015.738,-1,-0.3125, 0.03710938, -0.909668, 0.008749962, -0.3759375, 0.1565626,125.6389,5,4,True,True,177
16627,2.087912,1.19397,1015.848,43.81836,-0.3129883, 0.03857422, -0.9086914, 0.008749962, -0.4540625, 0.1565626,125.6389,5,4,True,True,177
16702,2.082832,2.077751,1015.815,43.80469,-0.3134766, 0.03662109, -0.909668, -0.006875038, -0.4384375, 0.1409376,125.6389,5,4,True,True,177
16777,1.777031,1.47123,1015.838,43.80013,-0.3125, 0.03759766, -0.9067383, 0.008749962, -0.3446875, 0.1878126,125.6389,5,4,True,True,177
16852,1.043609,0.3101883,1015.88,-1,-0.3120117, 0.03710938, -0.9077148, -0.02250004, -0.3915625, 0.1409376,125.6389,5,4,True,True,177
16928,2.808369,4.573128,1015.724,-1,-0.3129883, 0.03613281, -0.9086914, 0.03999996, -0.3603125, 0.1565626,125.6389,5,4,True,True,177
17112,2.50371,2.199051,1015.81,43.76367,-0.3134766, 0.03759766, -0.9116211, 0.02437496, -0.4071875, 0.1721876,125.6389,5,4,True,True,177
17188,1.207665,-0.08837891,1015.895,-1,-0.3115234, 0.03564453, -0.9072266, 0.05562496, -0.3446875, 0.1096876,125.6389,5,4,True,True,177
17266,1.400101,1.592537,1015.833,43.75911,-0.3139648, 0.03759766, -0.909668, -0.006875038, -0.2978125, 0.1721876,125.6389,5,4,True,True,177
17341,2.20681,3.013519,1015.781,-1,-0.3120117, 0.03710938, -0.9072266, -0.02250004, -0.3446875, 0.09406257,125.6389,5,4,True,True,177
17421,0.6173249,-0.9721603,1015.927,43.75456,-0.3120117, 0.03662109, -0.9091797, -0.05375004, -0.4071875, 0.1096876,125.6389,5,4,True,True,177
17501,0.9316407,1.245956,1015.846,-1,-0.3125, 0.03662109, -0.909668, 0.03999996, -0.4228125, 0.1409376,125.6389,5,4,True,True,177
17600,1.088799,1.245956,1015.846,43.73632,-0.3134766, 0.03759766, -0.9077148, -0.06937504, -0.4540625, 0.2346876,125.6389,5,4,True,True,177
17681,0.8641205,0.6394424,1015.868,43.74089,-0.3120117, 0.03857422, -0.9086914, 0.03999996, -0.3915625, 0.1565626,125.6389,5,4,True,True,177
17763,0.7517815,0.6394424,1015.868,-1,-0.3125, 0.03662109, -0.9101563, 0.02437496, -0.4071875, 0.1096876,125.6389,5,4,True,True,177
17846,0.9642086,1.176636,1015.848,43.72721,-0.3129883, 0.03759766, -0.9106445, 0.02437496, -0.3446875, 0.2034376,125.6389,5,4,True,True,177
17927,1.165732,1.367256,1015.841,-1,-0.3129883, 0.03613281, -0.909668, 0.02437496, -0.3915625, 0.09406257,125.6389,5,4,True,True,177
18010,2.999397,4.833061,1015.714,-1,-0.3125, 0.03808594, -0.909668, 0.05562496, -0.3603125, 0.2034376,125.6389,5,4,True,True,177
18256,2.313297,1.627197,1015.831,-1,-0.3120117, 0.03710938, -0.9091797, -0.02250004, -0.3759375, 0.1409376,125.6389,5,4,True,True,177
18320,2.074221,1.835144,1015.824,-1,-0.3129883, 0.03662109, -0.909668, 0.03999996, -0.3290625, 0.2034376,125.6389,5,4,True,True,177
18384,2.188622,2.303024,1015.807,-1,-0.3129883, 0.03613281, -0.909668, -0.006875038, -0.3290625, 0.1878126,125.6389,5,4,True,True,177
18454,2.783024,3.377426,1015.767,43.55402,-0.3120117, 0.03710938, -0.9077148, -0.05375004, -0.3446875, 0.1721876,125.6389,5,4,True,True,177
18529,2.335078,1.887131,1015.822,43.53579,-0.3115234, 0.03759766, -0.9077148, -0.02250004, -0.3446875, 0.1721876,125.6389,5,4,True,True,177
18596,1.37462,0.4141617,1015.876,-1,-0.3120117, 0.03710938, -0.9077148, -0.006875038, -0.2978125, 0.1253126,125.6389,5,4,True,True,177
18664,1.024357,0.6740952,1015.867,43.52668,-0.3125, 0.03564453, -0.9082031, -0.03812504, -0.3290625, 0.2034376,125.6389,5,4,True,True,177
18734,2.131575,3.238792,1015.772,43.51756,-0.3134766, 0.03564453, -0.909668, 0.05562496, -0.3759375, 0.1253126,125.6389,5,4,True,True,177
18804,1.506808,0.8820419,1015.859,43.50845,-0.3129883, 0.03759766, -0.9086914, -0.006875038, -0.3603125, 0.1253126,125.6389,5,4,True,True,177
18874,-0.08791965,-1.682648,1015.953,43.49022,-0.3129883, 0.03759766, -0.9086914, -0.006875038, -0.4228125, 0.2034376,125.6389,5,4,True,True,177
18944,-0.4867165,-0.8855133,1015.924,43.49477,-0.3125, 0.03710938, -0.9111328, -0.006875038, -0.3915625, 0.1409376,125.6389,5,4,True,True,177
19016,1.583989,3.654694,1015.758,-1,-0.3134766, 0.03710938, -0.909668, 0.02437496, -0.3290625, 0.1721876,125.6389,5,4,True,True,177
19194,1.163702,0.7434158,1015.864,43.46287,-0.3105469, 0.03759766, -0.9101563, -0.006875038, -0.3446875, 0.1721876,125.6389,5,4,True,True,177
19266,-0.1988229,-1.561348,1015.949,-1,-0.3115234, 0.0390625, -0.9086914, -0.006875038, -0.3603125, 0.1721876,125.6389,5,4,True,True,177
19338,0.1336628,0.4661484,1015.874,-1,-0.3125, 0.03662109, -0.9077148, 0.02437496, -0.3759375, 0.1721876,125.6389,5,4,True,True,177
19410,1.859518,3.585373,1015.76,-1,-0.3129883, 0.03564453, -0.9077148, -0.03812504, -0.3915625, 0.1409376,125.6389,5,4,True,True,177
19483,0.6949491,-0.4696198,1015.909,-1,-0.3120117, 0.03759766, -0.9077148, -0.006875038, -0.3134375, 0.2190626,125.6389,5,4,True,True,177
19558,0.9877829,1.280617,1015.844,-1,-0.3129883, 0.03564453, -0.9091797, -0.02250004, -0.3446875, 0.1565626,125.6389,5,4,True,True,177
19633,0.2590816,-0.4696198,1015.909,-1,-0.3115234, 0.03613281, -0.9086914, 0.03999996, -0.3915625, 0.1565626,125.6389,5,4,True,True,177
19709,0.1633314,0.06758118,1015.889,-1,-0.3125, 0.03808594, -0.909668, 0.02437496, -0.3446875, 0.09406257,125.6389,5,4,True,True,177
19788,1.536439,2.909546,1015.785,-1,-0.3125, 0.03564453, -0.9082031, -0.006875038, -0.4228125, 0.1409376,125.6389,5,4,True,True,177
19865,2.352959,3.169479,1015.775,-1,-0.3115234, 0.03857422, -0.9091797, -0.02250004, -0.3915625, 0.1565626,125.6389,5,4,True,True,177
19943,2.319328,2.285698,1015.807,43.42185,-0.3115234, 0.03759766, -0.9106445, 0.05562496, -0.3446875, 0.1878126,125.6389,5,4,True,True,177
20022,1.427395,0.5354614,1015.872,43.41273,-0.3129883, 0.03710938, -0.9082031, 0.03999996, -0.3915625, 0.1253126,125.6389,5,4,True,True,177
20213,-0.2056103,-1.838615,1015.959,-1,-0.3125, 0.03710938, -0.909668, 0.05562496, -0.4228125, 0.1878126,125.6389,5,4,True,True,177
20292,0.8320932,1.869797,1015.823,-1,-0.3115234, 0.03710938, -0.9091797, -0.006875038, -0.3134375, 0.1253126,125.6389,5,4,True,True,177
20377,1.324952,1.81781,1015.825,43.37627,-0.3115234, 0.03710938, -0.9091797, -0.05375004, -0.3915625, 0.2034376,125.6389,5,4,True,True,177
20461,0.6876032,0.05025482,1015.89,-1,-0.3115234, 0.03662109, -0.909668, 0.02437496, -0.3446875, 0.1565626,125.6389,5,4,True,True,177
20542,1.928541,3.169479,1015.775,-1,-0.3120117, 0.03662109, -0.9082031, 0.02437496, -0.4071875, 0.1253126,125.6389,5,4,True,True,177
20624,1.968486,2.00843,1015.818,-1,-0.3110352, 0.03759766, -0.9082031, 0.008749962, -0.3603125, 0.1409376,125.6389,5,4,True,True,177
20755,1.555234,1.141983,1015.85,43.33525,-0.3110352, 0.03857422, -0.909668, 0.03999996, -0.3915625, 0.1565626,125.6389,5,4,True,True,177
20821,1.478575,1.401917,1015.84,43.33525,-0.3129883, 0.03808594, -0.9086914, -0.02250004, -0.3759375, 0.1565626,125.6389,5,4,True,True,177
20886,2.012104,2.545631,1015.798,43.33525,-0.3115234, 0.03662109, -0.9101563, 0.1025, -0.3446875, 0.2034376,125.6389,5,4,True,True,177
20951,2.278867,2.545631,1015.798,-1,-0.3129883, 0.03808594, -0.9111328, 0.02437496, -0.3603125, 0.1409376,125.6389,5,4,True,True,177
21021,2.247626,2.216385,1015.81,43.32614,-0.3120117, 0.03759766, -0.9086914, 0.03999996, -0.3446875, 0.1565626,125.6389,5,4,True,True,177
21087,1.928745,1.609863,1015.833,-1,-0.3120117, 0.03662109, -0.9086914, 0.03999996, -0.4071875, 0.1096876,125.6389,5,4,True,True,177
21262,1.024156,0.1195679,1015.887,-1,-0.3120117, 0.03662109, -0.9091797, 0.008749962, -0.3603125, 0.1721876,125.6389,5,4,True,True,177
21330,3.136559,5.248962,1015.699,-1,-0.3120117, 0.03955078, -0.909668, 0.02437496, -0.3603125, 0.1721876,125.6389,5,4,True,True,177
21400,0.4496884,-2.237183,1015.974,-1,-0.3120117, 0.03857422, -0.9086914, -0.006875038, -0.3446875, 0.2346876,125.6389,5,4,True,True,177
21469,1.939551,3.429413,1015.766,43.26232,-0.3105469, 0.03759766, -0.9106445, 0.008749962, -0.3759375, 0.07843757,125.6389,5,4,True,True,177
21547,2.511191,3.082832,1015.778,-1,-0.3105469, 0.03710938, -0.9111328, 0.008749962, -0.3915625, 0.1721876,125.6389,5,4,True,True,177
21620,2.935646,3.3601,1015.768,43.24409,-0.3120117, 0.03759766, -0.9116211, -0.03812504, -0.2821875, 0.09406257,125.6389,5,4,True,True,177
21690,2.835949,2.736252,1015.791,-1,-0.3120117, 0.03710938, -0.9077148, 0.02437496, -0.3134375, 0.1878126,125.6389,5,4,True,True,177
21761,2.214243,1.592537,1015.833,-1,-0.3105469, 0.03662109, -0.9111328, -0.02250004, -0.3759375, 0.1721876,125.6389,5,4,True,True,177
21835,2.449254,2.684265,1015.793,-1,-0.3110352, 0.03662109, -0.9091797, 0.02437496, -0.3759375, 0.1565626,125.6389,5,4,True,True,177
21909,2.56676,2.684265,1015.793,-1,-0.3134766, 0.03710938, -0.9091797, 0.07124996, -0.3759375, 0.1878126,125.6389,5,4,True,True,177
21985,1.039907,-0.4869461,1015.909,-1,-0.3105469, 0.03759766, -0.9086914, 0.02437496, -0.3915625, 0.09406257,125.6389,5,4,True,True,177
22059,1.827429,2.614952,1015.796,-1,-0.3105469, 0.03710938, -0.9116211, 0.02437496, -0.3603125, 0.1721876,125.6389,5,4,True,True,177
22246,0.1936906,-1.440048,1015.945,-1,-0.3110352, 0.03710938, -0.9101563, 0.03999996, -0.3446875, 0.1721876,125.6389,5,4,True,True,177
22320,0.3559128,0.5181351,1015.873,-1,-0.3120117, 0.03710938, -0.9121094, 0.008749962, -0.4228125, 0.1409376,125.6389,5,4,True,True,177
22398,1.286149,2.216385,1015.81,43.17117,-0.3100586, 0.03710938, -0.9101563, -0.02250004, -0.3759375, 0.1253126,125.6389,5,4,True,True,177
22479,1.881234,2.476318,1015.801,-1,-0.3115234, 0.03808594, -0.9111328, 0.02437496, -0.4228125, 0.1565626,125.6389,5,4,True,True,177
22559,1.442291,1.003349,1015.855,43.15749,-0.3115234, 0.03759766, -0.9091797, -0.02250004, -0.3759375, 0.1253126,125.6389,5,4,True,True,177
22638,2.635136,3.82798,1015.751,-1,-0.3110352, 0.03710938, -0.9077148, -0.006875038, -0.3134375, 0.1409376,125.6389,5,4,True,True,177
22720,2.789667,2.944199,1015.783,-1,-0.3115234, 0.03710938, -0.9091797, 0.05562496, -0.3915625, 0.1096876,125.6389,5,4,True,True,177
22803,2.433709,2.077751,1015.815,43.1347,-0.3125, 0.03662109, -0.9077148, 0.08687496, -0.3446875, 0.09406257,125.6389,5,4,True,True,177
22884,2.524331,2.614952,1015.796,-1,-0.3110352, 0.03759766, -0.9077148, 0.008749962, -0.3603125, 0.1096876,125.6389,5,4,True,True,177
22965,1.555893,0.5874557,1015.87,-1,-0.3129883, 0.03808594, -0.9082031, 0.02437496, -0.3446875, 0.1721876,125.6389,5,4,True,True,177
23048,2.492653,3.429413,1015.766,-1,-0.3125, 0.03808594, -0.9072266, 0.008749962, -0.3915625, 0.1565626,125.6389,5,4,True,True,177
23133,2.657776,2.822899,1015.788,43.09824,-0.3120117, 0.03662109, -0.9086914, -0.02250004, -0.3134375, 0.1409376,125.6389,5,4,True,True,177
23373,1.553299,0.448822,1015.875,43.06633,-0.3129883, 0.03613281, -0.9106445, -0.006875038, -0.3446875, 0.1721876,125.6389,5,4,True,True,177
23438,0.3945427,-0.7642136,1015.92,43.05721,-0.3125, 0.03759766, -0.9130859, 0.008749962, -0.3759375, 0.2190626,125.6389,5,4,True,True,177
23504,-0.0548687,-0.5042801,1015.91,-1,-0.3110352, 0.03710938, -0.9116211, 0.02437496, -0.3446875, 0.1253126,125.6389,5,4,True,True,177
23569,0.1276598,0.3101883,1015.88,-1,-0.3120117, 0.03759766, -0.9101563, 0.02437496, -0.4384375, 0.1565626,125.6389,5,4,True,True,177
23637,1.232672,2.337685,1015.806,43.05265,-0.3105469, 0.03613281, -0.9121094, 0.008749962, -0.3603125, 0.1409376,125.6389,5,4,True,True,177
23703,3.067527,4.902382,1015.711,-1,-0.3095703, 0.03710938, -0.909668, -0.02250004, -0.3603125, 0.1565626,125.6389,5,4,True,True,177
23773,3.24847,3.429413,1015.766,43.03442,-0.3129883, 0.03564453, -0.9101563, 0.03999996, -0.3446875, 0.1253126,125.6389,5,4,True,True,177
23842,3.200308,3.152145,1015.776,43.0253,-0.3120117, 0.03759766, -0.9101563, 0.1025, -0.3446875, 0.1565626,125.6389,5,4,True,True,177
23912,2.301112,1.401917,1015.84,43.01619,-0.3105469, 0.03710938, -0.909668, 0.05562496, -0.3446875, 0.1878126,125.6389,5,4,True,True,177
23982,2.388715,2.476318,1015.801,43.01619,-0.3100586, 0.03857422, -0.9101563, 0.008749962, -0.3759375, 0.1409376,125.6389,5,4,True,True,177
24053,2.397856,2.406998,1015.803,-1,-0.3115234, 0.03710938, -0.9116211, -0.03812504, -0.2821875, 0.1565626,125.6389,5,4,True,True,177
24126,2.064514,1.731171,1015.828,42.96149,-0.3100586, 0.03662109, -0.9125977, -0.006875038, -0.3134375, 0.1409376,125.6389,5,4,True,True,177
24307,2.842274,3.620033,1015.758,-1,-0.3105469, 0.03759766, -0.9121094, 0.02437496, -0.3603125, 0.07843757,125.6389,5,4,True,True,177
24381,2.191412,1.54055,1015.835,42.91134,-0.3120117, 0.03759766, -0.9111328, -0.006875038, -0.3759375, 0.2034376,125.6389,5,4,True,True,177
24455,0.9562063,-0.2789993,1015.902,42.88856,-0.3129883, 0.03857422, -0.9091797, 0.02437496, -0.3446875, 0.1565626,125.6389,5,4,True,True,177
24531,-0.1032872,-1.162781,1015.934,42.87032,-0.3115234, 0.03857422, -0.9125977, -0.05375004, -0.3759375, 0.1409376,125.6389,5,4,True,True,177
24603,0.753288,1.609863,1015.833,-1,-0.3134766, 0.03759766, -0.9135742, -0.02250004, -0.3290625, 0.2034376,125.6389,5,4,True,True,177
24686,0.739685,0.7260818,1015.865,-1,-0.3120117, 0.03564453, -0.9116211, -0.006875038, -0.3759375, 0.1409376,125.6389,5,4,True,True,177
24761,0.5942535,0.448822,1015.875,42.84753,-0.3125, 0.03710938, -0.9091797, 0.008749962, -0.3603125, 0.1409376,125.6389,5,4,True,True,177
24838,2.245777,3.897301,1015.748,-1,-0.3115234, 0.03564453, -0.9116211, 0.03999996, -0.3603125, 0.1721876,125.6389,5,4,True,True,177
24911,2.499678,2.753578,1015.79,-1,-0.3125, 0.03759766, -0.9091797, 0.02437496, -0.2509375, 0.1409376,125.6389,5,4,True,True,177
24986,2.462005,2.424332,1015.803,-1,-0.3120117, 0.03662109, -0.9116211, 0.03999996, -0.3134375, 0.1565626,125.6389,5,4,True,True,177
25066,1.290786,0.1195679,1015.887,42.83841,-0.3105469, 0.03759766, -0.9106445, 0.03999996, -0.3759375, 0.1565626,125.6389,5,4,True,True,177
25146,1.987526,2.684265,1015.793,-1,-0.3110352, 0.03808594, -0.9135742, 0.008749962, -0.3290625, 0.1721876,125.6389,5,4,True,True,177
25331,0.3083991,-1.370728,1015.942,-1,-0.3100586, 0.03564453, -0.909668, -0.02250004, -0.3915625, 0.1878126,125.6389,5,4,True,True,177
25411,0.179327,0.05025482,1015.89,42.82018,-0.3105469, 0.03759766, -0.9091797, 0.008749962, -0.3915625, 0.1409376,125.6389,5,4,True,True,177
25492,-0.1538096,-0.4869461,1015.91,-1,-0.3095703, 0.03710938, -0.909668, 0.02437496, -0.3759375, 0.1878126,125.6389,5,4,True,True,177
25575,-0.3550382,-0.5562668,1015.912,-1,-0.3110352, 0.03759766, -0.9091797, 0.008749962, -0.3759375, 0.09406257,125.6389,5,4,True,True,177
25659,-0.4556525,-0.5562668,1015.912,42.8065,-0.3105469, 0.03808594, -0.9121094, 0.008749962, -0.3603125, 0.1096876,125.6389,5,4,True,True,177
25741,-0.9391833,-1.422714,1015.944,-1,-0.3100586, 0.03857422, -0.9111328, 0.02437496, -0.3134375, 0.1565626,125.6389,5,4,True,True,177
25877,-1.926096,-2.91301,1015.998,-1,-0.3115234, 0.03613281, -0.9111328, 0.008749962, -0.3603125, 0.1721876,125.6389,5,4,True,True,177
25940,0.1451442,2.216385,1015.81,-1,-0.3110352, 0.03759766, -0.9121094, -0.006875038, -0.3915625, 0.1565626,125.6389,5,4,True,True,177
26006,0.4442801,0.7434158,1015.864,-1,-0.3110352, 0.03710938, -0.9106445, 0.008749962, -0.3603125, 0.1721876,125.6389,5,4,True,True,177
26071,0.02199048,-0.4002991,1015.907,-1,-0.3115234, 0.03613281, -0.9130859, 0.05562496, -0.3915625, 0.1878126,125.6389,5,4,True,True,177
26134,0.7812704,1.54055,1015.835,-1,-0.3110352, 0.03759766, -0.9086914, 0.05562496, -0.3603125, 0.1253126,125.6389,5,4,True,True,177
26199,0.0171954,-0.7468796,1015.919,42.75636,-0.3115234, 0.03808594, -0.9106445, 0.03999996, -0.3915625, 0.1565626,125.6389,5,4,True,True,177
26374,-0.9713598,-1.959915,1015.964,42.73357,-0.3110352, 0.03759766, -0.9116211, 0.05562496, -0.3759375, 0.09406257,125.6389,5,4,True,True,177
26443,-0.05332213,0.8647156,1015.86,42.70166,-0.3129883, 0.03662109, -0.9125977, 0.03999996, -0.2978125, 0.1721876,125.6389,5,4,True,True,177
26514,-0.9373017,-1.821281,1015.958,42.6971,-0.3115234, 0.03759766, -0.9130859, 0.08687496, -0.3134375, 0.1253126,125.6389,5,4,True,True,177
26584,-0.09694296,0.7434158,1015.864,42.69254,-0.3115234, 0.03613281, -0.9135742, 0.02437496, -0.3446875, 0.1253126,125.6389,5,4,True,True,177
26654,2.004152,4.105247,1015.741,-1,-0.3105469, 0.03662109, -0.9116211, 0.008749962, -0.3603125, 0.1721876,125.6389,5,4,True,True,177
26725,2.621472,3.238792,1015.773,-1,-0.3115234, 0.03662109, -0.9116211, 0.02437496, -0.3446875, 0.1878126,125.6389,5,4,True,True,177
26794,0.7726693,-1.076134,1015.931,-1,-0.3115234, 0.03710938, -0.9150391, 0.02437496, -0.3446875, 0.1721876,125.6389,5,4,True,True,177
26865,1.130616,1.488564,1015.837,-1,-0.3105469, 0.03613281, -0.9135742, 0.02437496, -0.4384375, 0.1409376,125.6389,5,4,True,True,177
26939,-0.00741899,-1.145454,1015.934,-1,-0.3125, 0.03613281, -0.9135742, -0.006875038, -0.3603125, 0.1565626,125.6389,5,4,True,True,177
27014,0.2640212,0.5354614,1015.872,42.63328,-0.3100586, 0.03710938, -0.9130859, 0.07124996, -0.3134375, 0.1721876,125.6389,5,4,True,True,177
27089,-1.315831,-2.895683,1015.998,42.62416,-0.3115234, 0.03759766, -0.9111328, -0.02250004, -0.3134375, 0.1409376,125.6389,5,4,True,True,177
27163,-0.4161782,0.4834747,1015.874,-1,-0.3120117, 0.03759766, -0.9121094, -0.006875038, -0.2821875, 0.1721876,125.6389,5,4,True,True,177
27348,-1.993848,-3.571518,1016.023,-1,-0.3100586, 0.03662109, -0.9111328, 0.02437496, -0.3290625, 0.1253126,125.6389,5,4,True,True,177
27423,-0.2179857,1.557877,1015.834,-1,-0.3100586, 0.03613281, -0.9082031, 0.02437496, -0.3446875, 0.1409376,125.6389,5,4,True,True,177
27500,0.06343144,0.3448486,1015.879,-1,-0.3110352, 0.03613281, -0.9106445, 0.02437496, -0.3446875, 0.1721876,125.6389,5,4,True,True,177
27578,1.755085,3.446739,1015.765,42.57402,-0.3110352, 0.03662109, -0.9106445, 0.008749962, -0.3446875, 0.1721876,125.6389,5,4,True,True,177
27658,0.4434492,-0.868187,1015.923,-1,-0.3110352, 0.03710938, -0.9111328, 0.05562496, -0.4071875, 0.1409376,125.6389,5,4,True,True,177
27747,-0.2123689,-0.868187,1015.923,-1,-0.3095703, 0.03662109, -0.9111328, 0.03999996, -0.3134375, 0.1409376,125.6389,5,4,True,True,177
27825,-0.6702446,-1.12812,1015.933,-1,-0.3105469, 0.03564453, -0.9101563, -0.006875038, -0.3759375, 0.1565626,125.6389,5,4,True,True,177
27904,-0.3619816,-0.05371857,1015.893,-1,-0.3110352, 0.03808594, -0.909668, -0.006875038, -0.3603125, 0.1096876,125.6389,5,4,True,True,177
27988,0.06074656,0.4834747,1015.874,42.53755,-0.3095703, 0.03613281, -0.9130859, 0.02437496, -0.3134375, 0.1253126,125.6389,5,4,True,True,177
28072,0.9826018,1.904457,1015.822,-1,-0.3115234, 0.03808594, -0.9106445, 0.02437496, -0.3759375, 0.1565626,125.6389,5,4,True,True,177
28154,0.8716721,0.7607422,1015.864,-1,-0.3100586, 0.03759766, -0.9106445, 0.03999996, -0.2821875, 0.2034376,125.6389,5,4,True,True,177
28237,1.084808,1.297943,1015.844,42.54211,-0.3095703, 0.03808594, -0.9116211, 0.03999996, -0.3759375, 0.1721876,125.6389,5,4,True,True,177
28478,0.6195179,0.1542282,1015.886,-1,-0.3115234, 0.03808594, -0.9086914, 0.02437496, -0.3915625, 0.1565626,125.6389,5,4,True,True,177
28544,0.3868731,0.1542282,1015.886,-1,-0.3120117, 0.03710938, -0.9091797, 0.008749962, -0.4071875, 0.1721876,125.6389,5,4,True,True,177
28607,0.8424081,1.297943,1015.844,-1,-0.3105469, 0.03662109, -0.9082031, -0.006875038, -0.3759375, 0.1565626,125.6389,5,4,True,True,177
28672,2.049267,3.256126,1015.772,42.51476,-0.3110352, 0.03759766, -0.9077148, 0.02437496, -0.2509375, 0.2034376,125.6389,5,4,True,True,177
28739,1.474322,0.8993759,1015.859,-1,-0.3125, 0.03857422, -0.9101563, 0.118125, -0.3134375, 0.1721876,125.6389,5,4,True,True,177
28804,1.022222,0.5701218,1015.871,-1,-0.3120117, 0.03564453, -0.9077148, 0.008749962, -0.4384375, 0.1253126,125.6389,5,4,True,True,177
28872,0.7615152,0.5008087,1015.873,-1,-0.3105469, 0.03759766, -0.9116211, 0.02437496, -0.3915625, 0.1253126,125.6389,5,4,True,True,177
28942,0.0593045,-0.6429062,1015.915,42.45549,-0.3105469, 0.03662109, -0.9106445, 0.05562496, -0.3290625, 0.1253126,125.6389,5,4,True,True,177
29011,1.423771,2.788239,1015.789,42.45549,-0.3110352, 0.03515625, -0.9086914, -0.006875038, -0.3603125, 0.2034376,125.6389,5,4,True,True,177
29082,1.499491,1.575211,1015.834,42.44181,-0.3105469, 0.03564453, -0.9086914, -0.006875038, -0.3446875, 0.1565626,125.6389,5,4,True,True,177
29153,1.23409,0.968689,1015.856,-1,-0.3120117, 0.03808594, -0.9091797, -0.02250004, -0.3915625, 0.1565626,125.6389,5,4,True,True,177
29227,-0.3455824,-1.925255,1015.962,42.43725,-0.309082, 0.03808594, -0.9086914, 0.02437496, -0.3915625, 0.1409376,125.6389,5,4,True,True,177
29408,0.6927941,1.731171,1015.828,-1,-0.3110352, 0.03710938, -0.909668, 0.02437496, -0.3290625, 0.1878126,125.6389,5,4,True,True,177
29481,-0.6768841,-2.046562,1015.967,42.37799,-0.309082, 0.03613281, -0.9091797, 0.03999996, -0.2821875, 0.1096876,125.6389,5,4,True,True,177
29556,0.189226,1.055336,1015.853,42.37799,-0.3095703, 0.03759766, -0.9116211, 0.008749962, -0.2665625, 0.1409376,125.6389,5,4,True,True,177
29632,1.324105,2.458984,1015.801,42.37343,-0.3115234, 0.03564453, -0.9121094, -0.02250004, -0.3759375, 0.1409376,125.6389,5,4,True,True,177
29706,-0.699142,-2.722389,1015.991,-1,-0.3105469, 0.03710938, -0.9125977, -0.006875038, -0.3446875, 0.1409376,125.6389,5,4,True,True,177
29781,0.5506709,1.800484,1015.825,-1,-0.3105469, 0.03662109, -0.9111328, -0.02250004, -0.3446875, 0.1878126,125.6389,5,4,True,True,177
29858,-0.8779124,-2.306496,1015.976,-1,-0.3110352, 0.03564453, -0.9116211, -0.006875038, -0.2978125, 0.1409376,125.6389,5,4,True,True,177
29936,0.6345759,2.147064,1015.813,42.27769,-0.3110352, 0.03759766, -0.9106445, 0.008749962, -0.3915625, 0.2034376,125.6389,5,4,True,True,177
30015,0.1864515,-0.261673,1015.901,42.24578,-0.3095703, 0.03710938, -0.9125977, -0.03812504, -0.3446875, 0.1878126,125.6389,5,4,True,True,177
30095,0.06636644,-0.05371857,1015.894,42.21843,-0.3105469, 0.03710938, -0.9140625, 0.07124996, -0.2978125, 0.1565626,125.6389,5,4,True,True,177
30173,-0.7388276,-1.544022,1015.948,-1,-0.3105469, 0.03808594, -0.9135742, -0.02250004, -0.4540625, 0.2034376,125.6389,5,4,True,True,177
30255,-1.176081,-1.613335,1015.95,42.18195,-0.3095703, 0.03710938, -0.9140625, 0.008749962, -0.2353125, 0.1096876,125.6389,5,4,True,True,177
30446,0.5721385,2.320358,1015.806,-1,-0.3110352, 0.03857422, -0.9116211, -0.006875038, -0.4071875, 0.1409376,125.6389,5,4,True,True,177
30525,0.2938665,0.01559448,1015.891,42.15916,-0.3105469, 0.03808594, -0.9140625, 0.02437496, -0.3446875, 0.2503126,125.6389,5,4,True,True,177
30610,0.1287372,-0.03639221,1015.893,42.14548,-0.3085938, 0.03662109, -0.9121094, 0.008749962, -0.3446875, 0.1878126,125.6389,5,4,True,True,177
30695,0.5833735,1.03801,1015.853,42.12268,-0.3095703, 0.03808594, -0.9106445, 0.008749962, -0.3446875, 0.1721876,125.6389,5,4,True,True,177
30780,-0.4976504,-1.578674,1015.95,42.11357,-0.3105469, 0.03759766, -0.9121094, 0.03999996, -0.3134375, 0.1096876,125.6389,5,4,True,True,177
30871,-0.09373108,0.3101883,1015.88,-1,-0.309082, 0.03613281, -0.9135742, -0.006875038, -0.2821875, 0.1409376,125.6389,5,4,True,True,177
31001,-0.792883,-1.492035,1015.947,-1,-0.3105469, 0.03662109, -0.9101563, 0.02437496, -0.3915625, 0.07843757,125.6389,5,4,True,True,177
31065,0.8417177,2.476318,1015.801,-1,-0.3100586, 0.03759766, -0.9130859, 0.02437496, -0.3759375, 0.1721876,125.6389,5,4,True,True,177
31130,1.624358,2.406998,1015.803,-1,-0.3100586, 0.03808594, -0.9091797, -0.02250004, -0.4228125, 0.1409376,125.6389,5,4,True,True,177
31195,2.154311,2.684265,1015.793,-1,-0.3095703, 0.03662109, -0.9121094, 0.03999996, -0.3759375, 0.1565626,125.6389,5,4,True,True,177
31260,1.986061,1.81781,1015.825,42.01327,-0.3095703, 0.03808594, -0.9111328, 0.02437496, -0.3446875, 0.1565626,125.6389,5,4,True,True,177
31325,0.723564,-0.5389328,1015.911,-1,-0.3105469, 0.03955078, -0.9116211, -0.03812504, -0.3446875, 0.1409376,125.6389,5,4,True,True,177
31501,-0.2456017,-1.214767,1015.936,-1,-0.3110352, 0.03759766, -0.9130859, 0.02437496, -0.3134375, 0.1565626,125.6389,5,4,True,True,177
31569,0.1189365,0.4834747,1015.874,41.95855,-0.3110352, 0.03759766, -0.9106445, 0.1025, -0.3290625, 0.1409376,125.6389,5,4,True,True,177
31640,-0.5739088,-1.266754,1015.938,-1,-0.309082, 0.03613281, -0.9125977, -0.006875038, -0.3446875, 0.1721876,125.6389,5,4,True,True,177
31710,0.3620172,1.297943,1015.844,-1,-0.3100586, 0.03613281, -0.9121094, 0.02437496, -0.3290625, 0.1721876,125.6389,5,4,True,True,177
31780,1.237211,2.112404,1015.814,-1,-0.3095703, 0.03613281, -0.9116211, 0.02437496, -0.2978125, 0.1096876,125.6389,5,4,True,True,177
31853,0.7996927,0.362175,1015.878,41.92208,-0.3100586, 0.03710938, -0.9130859, -0.02250004, -0.3915625, 0.1253126,125.6389,5,4,True,True,177
31924,-0.874705,-2.549103,1015.985,-1,-0.309082, 0.03759766, -0.9150391, -0.06937504, -0.3759375, 0.07843757,125.6389,5,4,True,True,177
31999,-1.16604,-1.457375,1015.945,41.89473,-0.309082, 0.03759766, -0.9145508, -0.02250004, -0.3290625, 0.1565626,125.6389,5,4,True,True,177
32074,-1.614964,-2.063889,1015.967,41.87648,-0.3085938, 0.03759766, -0.9125977, 0.02437496, -0.3759375, 0.1721876,125.6389,5,4,True,True,177
32149,0.7252708,3.065506,1015.779,-1,-0.3105469, 0.03759766, -0.9125977, -0.006875038, -0.3290625, 0.2034376,125.6389,5,4,True,True,177
32224,1.158904,1.592537,1015.833,41.86737,-0.3105469, 0.03710938, -0.9135742, -0.006875038, -0.3759375, 0.1253126,125.6389,5,4,True,True,177
32298,-0.6431128,-2.445129,1015.982,-1,-0.3105469, 0.03613281, -0.9111328, 0.05562496, -0.3134375, 0.1409376,125.6389,5,4,True,True,177
32484,-0.8162997,-0.9894867,1015.927,41.86737,-0.3110352, 0.03710938, -0.9116211, 0.02437496, -0.3134375, 0.1409376,125.6389,5,4,True,True,177
32559,-2.046612,-3.276924,1016.012,-1,-0.3100586, 0.03662109, -0.9145508, 0.03999996, -0.3759375, 0.1409376,125.6389,5,4,True,True,177
32638,-1.78665,-1.526688,1015.947,41.87648,-0.3095703, 0.03613281, -0.9121094, 0.008749962, -0.3915625, 0.1878126,125.6389,5,4,True,True,177
32718,-0.5129538,0.7607422,1015.863,41.88105,-0.309082, 0.03710938, -0.9111328, 0.008749962, -0.3134375, 0.1878126,125.6389,5,4,True,True,177
32798,-0.006072551,0.5008087,1015.873,-1,-0.3085938, 0.03759766, -0.9116211, 0.008749962, -0.2978125, 0.1409376,125.6389,5,4,True,True,177
32879,-0.7663801,-1.526688,1015.947,41.88105,-0.3095703, 0.03662109, -0.9111328, 0.07124996, -0.3290625, 0.1721876,125.6389,5,4,True,True,177
32958,-1.276504,-1.786629,1015.957,41.8856,-0.3115234, 0.03710938, -0.9121094, -0.006875038, -0.3290625, 0.1565626,125.6389,5,4,True,True,177
33038,-0.2578811,0.7607422,1015.863,-1,-0.3105469, 0.03710938, -0.9116211, 0.05562496, -0.3134375, 0.2034376,125.6389,5,4,True,True,177
33120,-0.3117637,-0.3656464,1015.905,-1,-0.3115234, 0.03759766, -0.9086914, -0.02250004, -0.3759375, 0.1721876,125.6389,5,4,True,True,177
33205,-0.6506252,-0.9894867,1015.927,-1,-0.3105469, 0.03710938, -0.9106445, 0.05562496, -0.3290625, 0.1565626,125.6389,5,4,True,True,177
33284,-0.5427923,-0.4349594,1015.907,-1,-0.3120117, 0.03564453, -0.9106445, 0.05562496, -0.3134375, 0.1721876,125.6389,5,4,True,True,177
33415,0.3515821,1.245956,1015.846,-1,-0.3105469, 0.03857422, -0.9111328, 0.02437496, -0.3759375, 0.1878126,125.6389,5,4,True,True,177
33584,-0.3449457,-1.041473,1015.93,-1,-0.3100586, 0.03759766, -0.9091797, 0.02437496, -0.2821875, 0.1096876,125.6389,5,4,True,True,177
33648,1.022363,2.389671,1015.803,-1,-0.3115234, 0.03710938, -0.9116211, 0.008749962, -0.2665625, 0.1253126,125.6389,5,4,True,True,177
33714,0.5623022,0.1022415,1015.888,-1,-0.3120117, 0.03710938, -0.9121094, 0.02437496, -0.3759375, 0.2034376,125.6389,5,4,True,True,177
33780,1.61462,2.666939,1015.793,-1,-0.3095703, 0.03613281, -0.9111328, -0.006875038, -0.2978125, 0.1409376,125.6389,5,4,True,True,177
33848,1.707552,1.800484,1015.826,-1,-0.3095703, 0.03515625, -0.9121094, 0.07124996, -0.3446875, 0.1409376,125.6389,5,4,True,True,177
33917,-0.1001882,-1.907928,1015.962,41.84001,-0.309082, 0.03662109, -0.9106445, 0.02437496, -0.3134375, 0.1721876,125.6389,5,4,True,True,177
34012,0.2696271,0.6394424,1015.868,41.84001,-0.3100586, 0.03808594, -0.9086914, 0.03999996, -0.2821875, 0.1878126,125.6389,5,4,True,True,177
34081,0.02130724,-0.2270126,1015.9,41.84001,-0.309082, 0.03710938, -0.9101563, 0.008749962, -0.2509375, 0.1409376,125.6389,5,4,True,True,177
34148,0.3303748,0.6394424,1015.868,-1,-0.3110352, 0.03613281, -0.9101563, 0.05562496, -0.3603125, 0.2034376,125.6389,5,4,True,True,177
34217,-0.2515759,-0.8335266,1015.922,-1,-0.3100586, 0.03759766, -0.9101563, 0.02437496, -0.3134375, 0.1721876,125.6389,5,4,True,True,177
34287,0.1939333,0.6394424,1015.868,-1,-0.3120117, 0.03564453, -0.9101563, 0.008749962, -0.3446875, 0.1409376,125.6389,5,4,True,True,177
34362,-0.1465064,-0.4869461,1015.91,41.84001,-0.3120117, 0.03710938, -0.9111328, 0.08687496, -0.3134375, 0.1721876,125.6389,5,4,True,True,177
34544,-0.3513866,-0.5562668,1015.912,-1,-0.3110352, 0.03808594, -0.9086914, -0.006875038, -0.3603125, 0.2034376,125.6389,5,4,True,True,177
34617,0.9671556,2.285698,1015.808,-1,-0.3115234, 0.03710938, -0.9111328, 0.03999996, -0.3446875, 0.1409376,125.6389,5,4,True,True,177
34692,1.184536,1.401917,1015.84,41.81265,-0.3095703, 0.03710938, -0.9082031, 0.008749962, -0.3446875, 0.2034376,125.6389,5,4,True,True,177
34766,-0.4223461,-2.029228,1015.966,41.80354,-0.3095703, 0.03759766, -0.909668, 0.02437496, -0.3134375, 0.1565626,125.6389,5,4,True,True,177
34843,0.8970194,2.216385,1015.81,-1,-0.3105469, 0.03710938, -0.9101563, 0.03999996, -0.3759375, 0.1565626,125.6389,5,4,True,True,177
34922,0.9848409,1.072662,1015.852,41.79442,-0.3085938, 0.03515625, -0.9101563, -0.006875038, -0.3446875, 0.1721876,125.6389,5,4,True,True,177
34997,-1.128711,-3.242264,1016.01,-1,-0.3115234, 0.03710938, -0.9082031, 0.008749962, -0.3759375, 0.1565626,125.6389,5,4,True,True,177
35076,-1.041773,-0.954834,1015.926,41.7853,-0.3100586, 0.03759766, -0.9091797, -0.03812504, -0.4228125, 0.2034376,125.6389,5,4,True,True,177
35155,1.124503,3.290779,1015.77,41.7853,-0.3110352, 0.03662109, -0.9116211, 0.05562496, -0.3759375, 0.2034376,125.6389,5,4,True,True,177
35232,-0.07978868,-1.284081,1015.939,-1,-0.3115234, 0.03662109, -0.9091797, 0.03999996, -0.3134375, 0.1721876,125.6389,5,4,True,True,177
35311,0.739044,1.557877,1015.835,41.78074,-0.3110352, 0.03710938, -0.9091797, 0.008749962, -0.3915625, 0.1096876,125.6389,5,4,True,True,177
35393,0.5766028,0.4141617,1015.877,-1,-0.3105469, 0.03662109, -0.9116211, -0.006875038, -0.3290625, 0.1721876,125.6389,5,4,True,True,177
35581,-0.1457921,-0.868187,1015.923,-1,-0.3100586, 0.03759766, -0.9116211, 0.02437496, -0.3134375, 0.1565626,125.6389,5,4,True,True,177
35660,-0.09975532,-0.05371857,1015.893,-1,-0.3095703, 0.03808594, -0.9135742, -0.02250004, -0.3446875, 0.1096876,125.6389,5,4,True,True,177
35743,-0.3713307,-0.6429062,1015.915,-1,-0.3110352, 0.03710938, -0.9106445, 0.02437496, -0.3290625, 0.1721876,125.6389,5,4,True,True,177
35826,0.7665632,1.904457,1015.821,41.70778,-0.3095703, 0.03662109, -0.9106445, 0.05562496, -0.3915625, 0.07843757,125.6389,5,4,True,True,177
35911,-0.674656,-2.115875,1015.969,-1,-0.3110352, 0.03710938, -0.9106445, -0.02250004, -0.3134375, 0.1096876,125.6389,5,4,True,True,177
36041,-0.9966985,-1.318741,1015.94,-1,-0.3105469, 0.03662109, -0.9116211, 0.02437496, -0.2821875, 0.1721876,125.6389,5,4,True,True,177
36105,1.536944,4.070587,1015.742,-1,-0.3100586, 0.03710938, -0.9125977, -0.02250004, -0.3134375, 0.1878126,125.6389,5,4,True,True,177
36171,1.365457,1.19397,1015.848,-1,-0.3105469, 0.03710938, -0.9121094, 0.05562496, -0.2509375, 0.1409376,125.6389,5,4,True,True,177
36236,2.120171,2.874886,1015.786,-1,-0.3105469, 0.03710938, -0.9116211, 0.07124996, -0.3446875, 0.1721876,125.6389,5,4,True,True,177
36305,1.050553,-0.01906586,1015.893,41.64851,-0.3125, 0.03759766, -0.909668, -0.02250004, -0.3446875, 0.1409376,125.6389,5,4,True,True,177
36372,-0.1947477,-1.440048,1015.944,-1,-0.3105469, 0.03662109, -0.9121094, -0.03812504, -0.3603125, 0.1721876,125.6389,5,4,True,True,177
36440,0.03172693,0.2582016,1015.882,41.63027,-0.3105469, 0.03857422, -0.909668, 0.05562496, -0.3759375, 0.07843757,125.6389,5,4,True,True,177
36621,0.1103039,0.1888809,1015.884,41.62115,-0.3105469, 0.03710938, -0.9111328, -0.02250004, -0.3446875, 0.06281257,125.6389,5,4,True,True,177
36691,-1.704614,-3.519531,1016.02,41.62115,-0.3110352, 0.03759766, -0.909668, 0.008749962, -0.3134375, 0.1721876,125.6389,5,4,True,True,177
36760,-0.8878331,-0.07105255,1015.894,-1,-0.3134766, 0.03613281, -0.909668, 0.008749962, -0.3134375, 0.1565626,125.6389,5,4,True,True,177
36831,-0.2195055,0.448822,1015.875,-1,-0.3125, 0.03613281, -0.909668, 0.02437496, -0.2509375, 0.1253126,125.6389,5,4,True,True,177
36902,-0.3185693,-0.4176331,1015.907,-1,-0.3115234, 0.03808594, -0.9135742, 0.02437496, -0.3134375, 0.1409376,125.6389,5,4,True,True,177
36975,-0.8013249,-1.284081,1015.939,41.60292,-0.3115234, 0.03710938, -0.9082031, 0.02437496, -0.3915625, 0.1096876,125.6389,5,4,True,True,177
37057,-1.47593,-2.150536,1015.971,-1,-0.3120117, 0.03662109, -0.9111328, 0.02437496, -0.3134375, 0.1253126,125.6389,5,4,True,True,177
37131,-1.813233,-2.150536,1015.971,-1,-0.3110352, 0.03662109, -0.9091797, 0.05562496, -0.2821875, 0.1253126,125.6389,5,4,True,True,177
37205,-1.583317,-1.353401,1015.941,-1,-0.3120117, 0.03808594, -0.9101563, 0.02437496, -0.3446875, 0.1253126,125.6389,5,4,True,True,177
37280,-1.468359,-1.353401,1015.941,41.57556,-0.3110352, 0.03662109, -0.9106445, 0.07124996, -0.3446875, 0.1096876,125.6389,5,4,True,True,177
37354,-1.003646,-0.5389328,1015.911,-1,-0.3105469, 0.03759766, -0.909668, -0.02250004, -0.3290625, 0.1409376,125.6389,5,4,True,True,177
37430,-0.3293986,0.3448486,1015.879,-1,-0.3105469, 0.03710938, -0.9091797, 0.008749962, -0.3290625, 0.1565626,125.6389,5,4,True,True,177
37616,0.2763216,0.8820419,1015.859,-1,-0.3110352, 0.03662109, -0.9111328, 0.008749962, -0.2821875, 0.1253126,125.6389,5,4,True,True,177
37694,0.5791818,0.8820419,1015.859,41.56644,-0.3100586, 0.03564453, -0.90625, 0.08687496, -0.3290625, 0.1721876,125.6389,5,4,True,True,177
37772,-0.2831363,-1.145454,1015.933,-1,-0.3105469, 0.03759766, -0.9101563, 0.03999996, -0.3446875, 0.1409376,125.6389,5,4,True,True,177
37849,0.2734595,0.8300552,1015.861,41.54819,-0.3115234, 0.03710938, -0.9086914, 0.02437496, -0.2978125, 0.1878126,125.6389,5,4,True,True,177
37930,-0.2887006,-0.8508606,1015.923,41.55732,-0.3105469, 0.03759766, -0.9106445, 0.008749962, -0.2821875, 0.1096876,125.6389,5,4,True,True,177
38009,-0.3011801,-0.3136597,1015.903,-1,-0.3105469, 0.03662109, -0.9101563, 0.03999996, -0.3603125, 0.1253126,125.6389,5,4,True,True,177
38090,0.229781,0.7607422,1015.864,-1,-0.3105469, 0.03613281, -0.9101563, 0.008749962, -0.3134375, 0.1409376,125.6389,5,4,True,True,177
38170,0.7725253,1.315269,1015.843,-1,-0.3120117, 0.03662109, -0.9101563, 0.02437496, -0.3446875, 0.1253126,125.6389,5,4,True,True,177
38249,0.4373834,0.1022415,1015.888,-1,-0.3100586, 0.03613281, -0.9106445, 0.05562496, -0.3134375, 0.1409376,125.6389,5,4,True,True,177
38330,1.387534,2.337685,1015.806,41.48436,-0.3105469, 0.03759766, -0.9101563, 0.05562496, -0.3446875, 0.1253126,125.6389,5,4,True,True,177
38414,1.689319,1.991104,1015.818,-1,-0.3110352, 0.03808594, -0.9111328, -0.006875038, -0.3446875, 0.1878126,125.6389,5,4,True,True,177
38547,0.8351267,-0.01906586,1015.892,-1,-0.3095703, 0.03759766, -0.9072266, 0.03999996, -0.3915625, 0.1253126,125.6389,5,4,True,True,177
38725,0.1134366,-0.6082535,1015.914,41.457,-0.3105469, 0.03662109, -0.909668, 0.02437496, -0.3290625, 0.1409376,125.6389,5,4,True,True,177
38789,1.866735,3.620033,1015.758,41.44788,-0.3120117, 0.03710938, -0.9111328, 0.02437496, -0.3603125, 0.1878126,125.6389,5,4,True,True,177
38854,2.067553,2.268372,1015.808,-1,-0.3110352, 0.03710938, -0.9086914, -0.06937504, -0.3446875, 0.2034376,125.6389,5,4,True,True,177
38919,1.301507,0.5354614,1015.872,-1,-0.3100586, 0.03662109, -0.9101563, 0.07124996, -0.2821875, 0.1721876,125.6389,5,4,True,True,177
38987,1.620312,1.939117,1015.82,-1,-0.3105469, 0.03710938, -0.9086914, -0.006875038, -0.2665625, 0.1409376,125.6389,5,4,True,True,177
39054,1.077887,0.5354614,1015.872,-1,-0.3100586, 0.03662109, -0.9091797, 0.05562496, -0.3446875, 0.2034376,125.6389,5,4,True,True,177
39121,-0.07710343,-1.232094,1015.937,-1,-0.3100586, 0.03710938, -0.9106445, -0.02250004, -0.3759375, 0.1565626,125.6389,5,4,True,True,177
39193,1.910099,3.897301,1015.748,41.43876,-0.3105469, 0.03662109, -0.9086914, 0.02437496, -0.3290625, 0.1409376,125.6389,5,4,True,True,177
39264,2.470472,3.030846,1015.78,-1,-0.3105469, 0.03759766, -0.9082031, 0.008749962, -0.3446875, 0.1409376,125.6389,5,4,True,True,177
39334,1.165053,-0.1403656,1015.897,41.4342,-0.3095703, 0.03662109, -0.9086914, 0.05562496, -0.3603125, 0.1409376,125.6389,5,4,True,True,177
39403,0.2437434,-0.6775665,1015.916,-1,-0.3115234, 0.03564453, -0.9091797, 0.008749962, -0.3759375, 0.1096876,125.6389,5,4,True,True,177
39475,-0.2169116,-0.6775665,1015.916,-1,-0.3110352, 0.03662109, -0.9086914, -0.02250004, -0.3446875, 0.1096876,125.6389,5,4,True,True,177
39655,0.09862505,0.4141617,1015.876,-1,-0.3110352, 0.03564453, -0.9111328, 0.03999996, -0.3759375, 0.1721876,125.6389,5,4,True,True,177
39725,0.6636276,1.22863,1015.847,-1,-0.3120117, 0.03759766, -0.909668, 0.02437496, -0.3759375, 0.1409376,125.6389,5,4,True,True,177
39799,0.9114685,1.159309,1015.849,41.3886,-0.3110352, 0.03662109, -0.909668, -0.006875038, -0.3915625, 0.1721876,125.6389,5,4,True,True,177
39875,0.6021652,0.2928619,1015.881,-1,-0.3115234, 0.03662109, -0.9101563, 0.008749962, -0.2353125, 0.1096876,125.6389,5,4,True,True,177
39949,0.4475136,0.2928619,1015.881,-1,-0.3120117, 0.03759766, -0.909668, 0.02437496, -0.3446875, 0.1253126,125.6389,5,4,True,True,177
40025,1.643869,2.840225,1015.787,-1,-0.3095703, 0.03808594, -0.909668, -0.006875038, -0.2665625, 0.1565626,125.6389,5,4,True,True,177
40103,2.519311,3.394753,1015.767,41.37492,-0.3105469, 0.03759766, -0.9082031, 0.1025, -0.3134375, 0.1565626,125.6389,5,4,True,True,177
40188,2.220551,1.921791,1015.821,41.3658,-0.3110352, 0.03759766, -0.9101563, -0.03812504, -0.3446875, 0.1409376,125.6389,5,4,True,True,177
40266,1.62928,1.03801,1015.853,-1,-0.3105469, 0.03662109, -0.9130859, 0.02437496, -0.2978125, 0.1253126,125.6389,5,4,True,True,177
40343,1.307652,0.9860229,1015.855,-1,-0.3115234, 0.03710938, -0.9106445, 0.03999996, -0.2509375, 0.1721876,125.6389,5,4,True,True,177
40423,2.151918,2.996185,1015.781,41.33389,-0.3110352, 0.03808594, -0.9077148, 0.07124996, -0.3446875, 0.1253126,125.6389,5,4,True,True,177
40503,0.6938524,-0.7642136,1015.92,41.32933,-0.309082, 0.03710938, -0.9106445, 0.03999996, -0.2978125, 0.1253126,125.6389,5,4,True,True,177
40695,0.9439111,1.19397,1015.848,-1,-0.3095703, 0.03613281, -0.9106445, 0.008749962, -0.3446875, 0.1096876,125.6389,5,4,True,True,177
40777,0.9043133,0.8647156,1015.86,41.30197,-0.3115234, 0.03662109, -0.9125977, 0.08687496, -0.3134375, 0.1565626,125.6389,5,4,True,True,177
40860,0.4512907,-0.001731873,1015.892,-1,-0.3105469, 0.03613281, -0.9116211, 0.02437496, -0.3915625, 0.1253126,125.6389,5,4,True,True,177
40945,0.9266036,1.401917,1015.84,-1,-0.3120117, 0.03613281, -0.9121094, -0.02250004, -0.3290625, 0.1409376,125.6389,5,4,True,True,177
41028,1.268233,1.609863,1015.832,-1,-0.3105469, 0.03808594, -0.9116211, -0.006875038, -0.3134375, 0.1409376,125.6389,5,4,True,True,177
41165,0.7372241,0.2062149,1015.884,-1,-0.3115234, 0.03808594, -0.909668, 0.02437496, -0.2978125, 0.1409376,125.6389,5,4,True,True,177
41228,0.3070925,-0.1230392,1015.896,-1,-0.3110352, 0.03662109, -0.9086914, 0.02437496, -0.4228125, 0.1565626,125.6389,5,4,True,True,177
41293,0.09202661,-0.1230392,1015.896,-1,-0.3100586, 0.03710938, -0.9125977, 0.008749962, -0.3134375, 0.1565626,125.6389,5,4,True,True,177
41358,0.8249516,1.557877,1015.834,-1,-0.3105469, 0.03662109, -0.9072266, 0.02437496, -0.3134375, 0.1409376,125.6389,5,4,True,True,177
41425,1.763272,2.701591,1015.792,-1,-0.3110352, 0.03564453, -0.9111328, 0.02437496, -0.3134375, 0.1721876,125.6389,5,4,True,True,177
41493,-0.3582591,-2.47979,1015.982,41.24725,-0.3115234, 0.03710938, -0.909668, 0.03999996, -0.3290625, 0.1409376,125.6389,5,4,True,True,177
41562,0.3052149,0.968689,1015.856,41.23357,-0.3115234, 0.03662109, -0.9116211, 0.05562496, -0.2821875, 0.1721876,125.6389,5,4,True,True,177
41740,0.4636617,0.6221085,1015.869,-1,-0.3115234, 0.03808594, -0.9091797, -0.006875038, -0.2821875, 0.1721876,125.6389,5,4,True,True,177
41812,0.386925,0.3101883,1015.88,41.21532,-0.3105469, 0.03710938, -0.9111328, 0.02437496, -0.3290625, 0.1565626,125.6389,5,4,True,True,177
41882,0.9204141,1.453903,1015.838,41.19708,-0.3100586, 0.03808594, -0.9106445, 0.07124996, -0.3446875, 0.1565626,125.6389,5,4,True,True,177
41952,0.04344374,-0.8335266,1015.922,41.2062,-0.309082, 0.03662109, -0.9116211, 0.03999996, -0.3446875, 0.1253126,125.6389,5,4,True,True,177
42023,0.4454165,0.8473892,1015.861,-1,-0.3110352, 0.03808594, -0.909668, 0.02437496, -0.3134375, 0.1721876,125.6389,5,4,True,True,177
42097,1.079627,1.713837,1015.829,41.20164,-0.3105469, 0.03857422, -0.909668, 0.05562496, -0.3446875, 0.1409376,125.6389,5,4,True,True,177
42170,0.6602509,0.2408752,1015.883,-1,-0.3110352, 0.03662109, -0.9082031, -0.006875038, -0.3134375, 0.1721876,125.6389,5,4,True,True,177
42243,0.8837868,1.107323,1015.851,-1,-0.3110352, 0.03662109, -0.909668, 0.02437496, -0.3290625, 0.09406257,125.6389,5,4,True,True,177
42314,0.7009609,0.5181351,1015.873,-1,-0.3105469, 0.03710938, -0.9091797, -0.006875038, -0.3134375, 0.1096876,125.6389,5,4,True,True,177
42387,1.753263,2.805565,1015.789,-1,-0.3100586, 0.03662109, -0.9101563, -0.006875038, -0.3134375, 0.1409376,125.6389,5,4,True,True,177
42463,1.265666,0.7780685,1015.863,-1,-0.3120117, 0.03662109, -0.9086914, 0.008749962, -0.3134375, 0.1878126,125.6389,5,4,True,True,177
42539,1.021867,0.7780685,1015.863,-1,-0.3129883, 0.03662109, -0.9086914, -0.006875038, -0.2821875, 0.1253126,125.6389,5,4,True,True,177
42727,2.017693,3.013519,1015.781,-1,-0.3110352, 0.03857422, -0.909668, 0.03999996, -0.3603125, 0.1253126,125.6389,5,4,True,True,177
42803,2.922837,3.82798,1015.751,41.16516,-0.3115234, 0.03613281, -0.9067383, 0.08687496, -0.3290625, 0.1565626,125.6389,5,4,True,True,177
42882,1.659836,0.3968353,1015.877,41.16516,-0.3110352, 0.03564453, -0.9086914, 0.05562496, -0.3915625, 0.1721876,125.6389,5,4,True,True,177
42962,0.4564782,-0.7468796,1015.919,-1,-0.3100586, 0.03564453, -0.9111328, 0.02437496, -0.2978125, 0.1253126,125.6389,5,4,True,True,177
43043,-0.1452007,-0.7468796,1015.919,-1,-0.3100586, 0.03710938, -0.909668, -0.02250004, -0.3290625, 0.07843757,125.6389,5,4,True,True,177
43124,2.551881,5.248962,1015.699,-1,-0.3110352, 0.03662109, -0.909668, 0.008749962, -0.2821875, 0.1253126,125.6389,5,4,True,True,177
43207,2.453446,2.355011,1015.805,41.13781,-0.3105469, 0.03662109, -0.9101563, 0.1025, -0.3603125, 0.1409376,125.6389,5,4,True,True,177
43297,1.260514,0.06758118,1015.889,-1,-0.3105469, 0.03759766, -0.9101563, 0.05562496, -0.2821875, 0.1409376,125.6389,5,4,True,True,177
43382,2.353626,3.446739,1015.765,41.12868,-0.3100586, 0.03808594, -0.909668, 0.03999996, -0.3446875, 0.1565626,125.6389,5,4,True,True,177
43467,1.756468,1.159309,1015.849,41.12412,-0.3105469, 0.03662109, -0.9082031, 0.008749962, -0.3446875, 0.1096876,125.6389,5,4,True,True,177
43551,1.319255,0.8820419,1015.859,-1,-0.3110352, 0.03857422, -0.9086914, 0.02437496, -0.3134375, 0.1409376,125.6389,5,4,True,True,177
43688,1.074655,0.8300552,1015.861,-1,-0.3115234, 0.03759766, -0.9082031, 0.07124996, -0.2978125, 0.1096876,125.6389,5,4,True,True,177
43862,0.8137253,0.5527954,1015.871,41.10132,-0.3100586, 0.03808594, -0.9082031, -0.03812504, -0.3134375, 0.09406257,125.6389,5,4,True,True,177
43927,1.965609,3.117493,1015.777,41.10588,-0.3110352, 0.03710938, -0.9086914, 0.08687496, -0.2196875, 0.1878126,125.6389,5,4,True,True,177
43991,1.666433,1.367256,1015.841,-1,-0.309082, 0.03710938, -0.9091797, -0.006875038, -0.3134375, 0.1409376,125.6389,5,4,True,True,177
44057,2.660563,3.654694,1015.757,41.09221,-0.3105469, 0.03808594, -0.9077148, -0.03812504, -0.3290625, 0.1253126,125.6389,5,4,True,True,177
44128,3.018995,3.377426,1015.767,41.09221,-0.3120117, 0.03808594, -0.9091797, 0.05562496, -0.3603125, 0.1253126,125.6389,5,4,True,True,177
44197,2.054495,1.089996,1015.851,-1,-0.3100586, 0.03564453, -0.9082031, 0.05562496, -0.2665625, 0.1721876,125.6389,5,4,True,True,177
44267,1.849509,1.644524,1015.831,41.08764,-0.3100586, 0.03662109, -0.9082031, -0.02250004, -0.2509375, 0.1096876,125.6389,5,4,True,True,177
44337,0.7419315,-0.3656464,1015.905,-1,-0.3110352, 0.03710938, -0.9082031, 0.008749962, -0.3134375, 0.1096876,125.6389,5,4,True,True,177
44407,0.5867098,0.431488,1015.875,-1,-0.3115234, 0.03808594, -0.9077148, 0.08687496, -0.2509375, 0.09406257,125.6389,5,4,True,True,177
44479,0.5090989,0.431488,1015.875,-1,-0.3110352, 0.03613281, -0.9072266, -0.03812504, -0.2978125, 0.1096876,125.6389,5,4,True,True,177
44551,1.319418,2.129738,1015.814,41.06484,-0.3100586, 0.03613281, -0.9082031, -0.006875038, -0.3446875, 0.1565626,125.6389,5,4,True,True,177
44623,1.144054,0.968689,1015.856,-1,-0.3095703, 0.03662109, -0.9091797, -0.02250004, -0.3759375, 0.1565626,125.6389,5,4,True,True,177
44807,0.7617775,0.3795013,1015.878,-1,-0.3105469, 0.03613281, -0.9077148, 0.05562496, -0.3603125, 0.1878126,125.6389,5,4,True,True,177
44881,1.419764,2.077751,1015.816,-1,-0.3110352, 0.03662109, -0.9082031, -0.02250004, -0.2821875, 0.1253126,125.6389,5,4,True,True,177
44957,0.8649763,0.3101883,1015.88,41.03748,-0.3110352, 0.03564453, -0.9106445, 0.008749962, -0.3759375, 0.1721876,125.6389,5,4,True,True,177
45033,1.731297,2.597618,1015.796,-1,-0.3105469, 0.03710938, -0.9077148, 0.05562496, -0.2978125, 0.1253126,125.6389,5,4,True,True,177
45111,1.298006,0.8647156,1015.86,-1,-0.3110352, 0.03710938, -0.9086914, -0.006875038, -0.2821875, 0.1409376,125.6389,5,4,True,True,177
45186,1.627225,1.956444,1015.82,-1,-0.3115234, 0.03857422, -0.9077148, 0.02437496, -0.2821875, 0.1878126,125.6389,5,4,True,True,177
45261,0.6481195,-0.330986,1015.904,41.00556,-0.3125, 0.03564453, -0.9086914, 0.05562496, -0.3759375, 0.1096876,125.6389,5,4,True,True,177
45338,0.2885335,-0.07105255,1015.894,-1,-0.3110352, 0.03662109, -0.9111328, 0.02437496, -0.3915625, 0.07843757,125.6389,5,4,True,True,177
45417,-0.05588278,-0.4002991,1015.906,-1,-0.3110352, 0.03759766, -0.909668, 0.02437496, -0.2509375, 0.1409376,125.6389,5,4,True,True,177
45497,0.6210301,1.297943,1015.844,-1,-0.3100586, 0.03759766, -0.9086914, -0.05375004, -0.3446875, 0.1721876,125.6389,5,4,True,True,177
45576,1.366717,2.112404,1015.814,-1,-0.3110352, 0.03662109, -0.9101563, -0.006875038, -0.3290625, 0.07843757,125.6389,5,4,True,True,177
45657,0.864446,0.362175,1015.878,-1,-0.3105469, 0.03808594, -0.9091797, 0.02437496, -0.3759375, 0.1565626,125.6389,5,4,True,True,177
45845,0.4226901,-0.01906586,1015.892,40.92803,-0.3100586, 0.03710938, -0.909668, -0.006875038, -0.2665625, 0.1721876,125.6389,5,4,True,True,177
45928,0.2018121,-0.01906586,1015.892,-1,-0.3120117, 0.03710938, -0.9082031, 0.03999996, -0.3134375, 0.1721876,125.6389,5,4,True,True,177
46012,0.3339802,0.4661484,1015.875,-1,-0.3115234, 0.03759766, -0.9091797, 0.008749962, -0.3134375, 0.09406257,125.6389,5,4,True,True,177
46097,-0.03315942,-0.4002991,1015.906,-1,-0.3100586, 0.03710938, -0.909668, 0.07124996, -0.2821875, 0.2034376,125.6389,5,4,True,True,177
46181,1.334216,2.701591,1015.793,-1,-0.3100586, 0.03662109, -0.9101563, -0.006875038, -0.2978125, 0.1409376,125.6389,5,4,True,True,177
46316,2.581098,3.82798,1015.751,40.88243,-0.3100586, 0.03613281, -0.9106445, 0.08687496, -0.3134375, 0.1253126,125.6389,5,4,True,True,177
46381,2.199454,1.81781,1015.825,-1,-0.3110352, 0.03564453, -0.9101563, -0.02250004, -0.2821875, 0.1721876,125.6389,5,4,True,True,177
46448,0.8649172,-0.4696198,1015.909,-1,-0.3105469, 0.03613281, -0.9101563, 0.05562496, -0.3134375, 0.1409376,125.6389,5,4,True,True,177
46522,-0.235575,-1.336067,1015.94,-1,-0.3100586, 0.03759766, -0.9111328, -0.006875038, -0.2665625, 0.1409376,125.6389,5,4,True,True,177
46587,0.3578938,0.9513626,1015.857,-1,-0.3105469, 0.03857422, -0.9077148, 0.02437496, -0.3134375, 0.1096876,125.6389,5,4,True,True,177
46656,-1.494172,-3.346237,1016.015,40.87331,-0.3129883, 0.03808594, -0.909668, -0.03812504, -0.3134375, 0.1721876,125.6389,5,4,True,True,177
46726,-0.002804101,1.488564,1015.837,40.86419,-0.3095703, 0.03808594, -0.9091797, 0.02437496, -0.3290625, 0.1721876,125.6389,5,4,True,True,177
46906,0.4482859,0.8993759,1015.859,40.84595,-0.3115234, 0.03759766, -0.9101563, 0.05562496, -0.3290625, 0.1409376,125.6389,5,4,True,True,177
46975,-0.3399172,-1.12812,1015.933,-1,-0.3105469, 0.03564453, -0.9121094, 0.03999996, -0.2665625, 0.1096876,125.6389,5,4,True,True,177
47042,1.388788,3.117493,1015.777,-1,-0.3105469, 0.03808594, -0.9077148, 0.05562496, -0.3759375, 0.1721876,125.6389,5,4,True,True,177
47108,1.109421,0.8300552,1015.861,-1,-0.3115234, 0.03710938, -0.9086914, -0.006875038, -0.3134375, 0.1721876,125.6389,5,4,True,True,177
47178,2.252087,3.394753,1015.767,-1,-0.3095703, 0.03808594, -0.9091797, 0.05562496, -0.3603125, 0.1096876,125.6389,5,4,True,True,177
47247,-0.165838,-2.583763,1015.987,-1,-0.3105469, 0.03759766, -0.9106445, 0.08687496, -0.3290625, 0.1409376,125.6389,5,4,True,True,177
47316,0.3321086,0.8300552,1015.861,-1,-0.3110352, 0.03759766, -0.9101563, 0.008749962, -0.3134375, 0.1409376,125.6389,5,4,True,True,177
47390,-0.9871935,-2.306496,1015.977,-1,-0.3120117, 0.03662109, -0.9086914, 0.02437496, -0.3290625, 0.1409376,125.6389,5,4,True,True,177
47466,-0.3731591,0.2408752,1015.883,40.82771,-0.3105469, 0.03710938, -0.9106445, 0.05562496, -0.2665625, 0.1878126,125.6389,5,4,True,True,177
47541,0.3410884,1.055336,1015.853,-1,-0.3085938, 0.03710938, -0.9077148, 0.02437496, -0.3134375, 0.1096876,125.6389,5,4,True,True,177
47617,-0.7487635,-1.838615,1015.959,-1,-0.3125, 0.03808594, -0.9091797, 0.008749962, -0.3290625, 0.07843757,125.6389,5,4,True,True,177
47695,-1.016422,-1.284081,1015.939,40.79578,-0.3105469, 0.03710938, -0.909668, 0.03999996, -0.2978125, 0.1409376,125.6389,5,4,True,True,177
47882,0.2360708,1.488564,1015.837,-1,-0.3110352, 0.03857422, -0.9082031, 0.05562496, -0.2978125, 0.1721876,125.6389,5,4,True,True,177
47958,0.6976901,1.159309,1015.849,-1,-0.3100586, 0.03759766, -0.9086914, 0.02437496, -0.3134375, 0.1253126,125.6389,5,4,True,True,177
48037,0.6252427,0.5527954,1015.871,-1,-0.3120117, 0.03759766, -0.9121094, -0.006875038, -0.3134375, 0.1565626,125.6389,5,4,True,True,177
48116,0.4503853,0.275528,1015.881,40.74561,-0.3105469, 0.03759766, -0.9091797, 0.118125, -0.2978125, 0.1721876,125.6389,5,4,True,True,177
48196,1.757946,3.065506,1015.779,40.72738,-0.3095703, 0.03662109, -0.9116211, 0.008749962, -0.3290625, 0.1409376,125.6389,5,4,True,True,177
48276,0.2542589,-1.249428,1015.937,40.71825,-0.3129883, 0.03759766, -0.9106445, -0.05375004, -0.2978125, 0.1565626,125.6389,5,4,True,True,177
48360,0.6201409,0.9860229,1015.855,40.70913,-0.3095703, 0.03710938, -0.9111328, 0.02437496, -0.3446875, 0.1565626,125.6389,5,4,True,True,177
48441,1.64354,2.666939,1015.793,40.70001,-0.3120117, 0.03710938, -0.9116211, 0.008749962, -0.2040625, 0.1409376,125.6389,5,4,True,True,177
48523,0.7429202,-0.1576996,1015.897,-1,-0.3095703, 0.03613281, -0.9091797, 0.05562496, -0.3134375, 0.1409376,125.6389,5,4,True,True,177
48607,0.8384782,0.9340363,1015.857,-1,-0.3115234, 0.03710938, -0.9106445, -0.02250004, -0.2978125, 0.1721876,125.6389,5,4,True,True,177
48691,0.6089898,0.3795013,1015.877,-1,-0.3100586, 0.03710938, -0.9086914, 0.02437496, -0.3134375, 0.1409376,125.6389,5,4,True,True,177
48822,-0.2075786,-1.024147,1015.929,-1,-0.3115234, 0.03857422, -0.9116211, -0.006875038, -0.2509375, 0.1096876,125.6389,5,4,True,True,177
48995,-0.7804899,-1.353401,1015.941,-1,-0.3100586, 0.03759766, -0.9111328, 0.008749962, -0.2978125, 0.1253126,125.6389,5,4,True,True,177
49062,-0.9283118,-1.076134,1015.931,-1,-0.3105469, 0.03662109, -0.9125977, 0.02437496, -0.2509375, 0.1096876,125.6389,5,4,True,True,177
49126,-1.140857,-1.353401,1015.941,-1,-0.3100586, 0.03759766, -0.9116211, 0.05562496, -0.2978125, 0.1409376,125.6389,5,4,True,True,177
49191,-0.8398947,-0.5389328,1015.911,40.67265,-0.3105469, 0.03710938, -0.9130859, 0.02437496, -0.2821875, 0.1096876,125.6389,5,4,True,True,177
49256,0.5842679,2.00843,1015.817,-1,-0.3115234, 0.03808594, -0.909668, 0.008749962, -0.3446875, 0.1409376,125.6389,5,4,True,True,177
49322,1.296349,2.00843,1015.817,-1,-0.3105469, 0.03662109, -0.9091797, -0.006875038, -0.2978125, 0.1253126,125.6389,5,4,True,True,177
49391,0.7859385,0.275528,1015.881,-1,-0.3095703, 0.03662109, -0.9121094, 0.02437496, -0.3446875, 0.1409376,125.6389,5,4,True,True,177
49461,1.535818,2.285698,1015.808,-1,-0.3095703, 0.03808594, -0.909668, 0.05562496, -0.2978125, 0.07843757,125.6389,5,4,True,True,177
49530,-0.09940809,-1.734634,1015.955,-1,-0.3095703, 0.03710938, -0.9106445, 0.02437496, -0.2978125, 0.09406257,125.6389,5,4,True,True,177
49610,0.4952941,1.089996,1015.852,-1,-0.3105469, 0.03613281, -0.9125977, 0.05562496, -0.2509375, 0.1409376,125.6389,5,4,True,True,177
49681,-0.5070336,-1.509361,1015.947,-1,-0.3100586, 0.03710938, -0.9125977, 0.03999996, -0.2509375, 0.1565626,125.6389,5,4,True,True,177
49751,0.3954548,1.297943,1015.844,40.6088,-0.3110352, 0.03710938, -0.9145508, 0.008749962, -0.2978125, 0.1409376,125.6389,5,4,True,True,177
49933,0.05822772,-0.2789993,1015.902,-1,-0.3115234, 0.03710938, -0.9116211, -0.03812504, -0.3290625, 0.09406257,125.6389,5,4,True,True,177
50006,-0.5436133,-1.145454,1015.934,-1,-0.3100586, 0.03662109, -0.9101563, -0.02250004, -0.3446875, 0.1096876,125.6389,5,4,True,True,177
50080,-0.4372997,-0.330986,1015.904,40.55407,-0.3105469, 0.03808594, -0.9106445, 0.05562496, -0.3134375, 0.1878126,125.6389,5,4,True,True,177
50157,-0.8173704,-1.197441,1015.935,-1,-0.3095703, 0.03759766, -0.9130859, 0.05562496, -0.3134375, 0.09406257,125.6389,5,4,True,True,177
50236,0.8381371,2.493645,1015.8,40.54495,-0.3105469, 0.03759766, -0.9125977, 0.05562496, -0.2821875, 0.1409376,125.6389,5,4,True,True,177
50315,1.094033,1.34993,1015.842,40.54495,-0.3115234, 0.03759766, -0.9125977, 0.05562496, -0.3290625, 0.1253126,125.6389,5,4,True,True,177
50390,0.7887541,0.4834747,1015.874,-1,-0.3105469, 0.03710938, -0.9091797, 0.05562496, -0.3446875, 0.2034376,125.6389,5,4,True,True,177
50486,1.641199,2.493645,1015.8,40.53582,-0.3115234, 0.03759766, -0.9116211, 0.02437496, -0.3290625, 0.1253126,125.6389,5,4,True,True,177
50566,2.041429,2.441658,1015.802,40.53582,-0.3110352, 0.03759766, -0.9130859, 0.03999996, -0.2821875, 0.1096876,125.6389,5,4,True,True,177
50647,2.10291,2.164391,1015.812,-1,-0.3105469, 0.03564453, -0.9106445, 0.02437496, -0.3290625, 0.1096876,125.6389,5,4,True,True,177
50726,1.561793,1.020676,1015.854,-1,-0.3110352, 0.03662109, -0.9116211, -0.006875038, -0.2353125, 0.1721876,125.6389,5,4,True,True,177
50807,1.568502,1.575211,1015.834,-1,-0.3105469, 0.03710938, -0.909668, 0.02437496, -0.2821875, 0.1721876,125.6389,5,4,True,True,177
51000,1.979086,2.389671,1015.804,40.50846,-0.3110352, 0.03662109, -0.9091797, 0.008749962, -0.3446875, 0.1721876,125.6389,5,4,True,True,177
51082,2.591613,3.20414,1015.774,-1,-0.3100586, 0.03759766, -0.9106445, -0.006875038, -0.3134375, 0.1096876,125.6389,5,4,True,True,177
51165,2.629276,2.666939,1015.794,-1,-0.3105469, 0.03564453, -0.9101563, 0.07124996, -0.2821875, 0.2034376,125.6389,5,4,True,True,177
51250,1.365759,0.1022415,1015.888,40.5039,-0.3115234, 0.03662109, -0.9125977, 0.03999996, -0.3134375, 0.1409376,125.6389,5,4,True,True,177
51335,1.002601,0.6394424,1015.868,40.49934,-0.3110352, 0.03710938, -0.9130859, 0.03999996, -0.3134375, 0.1409376,125.6389,5,4,True,True,177
51400,2.675228,4.347855,1015.732,40.49934,-0.3110352, 0.03808594, -0.909668, 0.008749962, -0.3446875, 0.1565626,125.6389,5,4,True,True,177
51466,2.367822,2.060417,1015.816,-1,-0.3105469, 0.03710938, -0.9101563, 0.03999996, -0.3134375, 0.1253126,125.6389,5,4,True,True,177
51531,2.491387,2.614952,1015.796,40.4811,-0.3100586, 0.03759766, -0.9125977, 0.008749962, -0.3134375, 0.07843757,125.6389,5,4,True,True,177
51596,0.6989598,-1.093468,1015.932,-1,-0.3100586, 0.03662109, -0.9106445, 0.03999996, -0.2821875, 0.1565626,125.6389,5,4,True,True,177
51661,2.766011,4.833061,1015.714,-1,-0.3105469, 0.03759766, -0.9111328, -0.006875038, -0.3134375, 0.1096876,125.6389,5,4,True,True,177
51731,2.083963,1.401917,1015.84,40.44461,-0.3105469, 0.03710938, -0.909668, 0.07124996, -0.3759375, 0.1096876,125.6389,5,4,True,True,177
51796,0.1140108,-1.855942,1015.96,-1,-0.3095703, 0.03662109, -0.9121094, -0.02250004, -0.2978125, 0.07843757,125.6389,5,4,True,True,177
51971,0.3247361,0.5354614,1015.872,40.36251,-0.3100586, 0.03662109, -0.9101563, 0.05562496, -0.2978125, 0.1096876,125.6389,5,4,True,True,177
52041,1.279224,2.233711,1015.81,-1,-0.3095703, 0.03662109, -0.9121094, 0.02437496, -0.2509375, 0.1721876,125.6389,5,4,True,True,177
52110,0.6127525,-0.05371857,1015.894,40.35795,-0.3110352, 0.03564453, -0.9121094, 0.05562496, -0.2978125, 0.1409376,125.6389,5,4,True,True,177
52181,1.145968,1.679184,1015.83,-1,-0.3095703, 0.03710938, -0.9111328, 0.02437496, -0.3134375, 0.1409376,125.6389,5,4,True,True,177
52251,-0.138373,-1.422714,1015.943,-1,-0.3100586, 0.03808594, -0.9106445, 0.008749962, -0.3446875, 0.1409376,125.6389,5,4,True,True,177
52322,1.368256,2.874886,1015.786,-1,-0.3105469, 0.03710938, -0.9091797, 0.02437496, -0.2509375, 0.1565626,125.6389,5,4,True,True,177
52393,-0.1658627,-1.699982,1015.954,-1,-0.309082, 0.03857422, -0.9121094, 0.02437496, -0.3134375, 0.1409376,125.6389,5,4,True,True,177
52465,0.07216281,0.3101883,1015.88,40.38532,-0.3095703, 0.03613281, -0.9106445, 0.008749962, -0.3290625, 0.1565626,125.6389,5,4,True,True,177
52541,-0.8139094,-1.699982,1015.954,-1,-0.3105469, 0.0390625, -0.909668, 0.02437496, -0.2665625, 0.09406257,125.6389,5,4,True,True,177
52620,0.1640368,1.141983,1015.85,-1,-0.3095703, 0.03710938, -0.9106445, 0.03999996, -0.2509375, 0.1096876,125.6389,5,4,True,True,177
52695,0.1851258,0.2062149,1015.884,40.35795,-0.3115234, 0.0390625, -0.9150391, 0.08687496, -0.3290625, 0.07843757,125.6389,5,4,True,True,177
52771,0.1956704,0.2062149,1015.884,-1,-0.3100586, 0.03759766, -0.9116211, 0.05562496, -0.3446875, 0.1565626,125.6389,5,4,True,True,177
52958,0.04497874,-0.1057129,1015.896,-1,-0.3100586, 0.03662109, -0.9106445, 0.05562496, -0.3290625, 0.1721876,125.6389,5,4,True,True,177
53038,0.2642267,0.4834747,1015.874,-1,-0.3115234, 0.03710938, -0.9101563, -0.02250004, -0.2978125, 0.1096876,125.6389,5,4,True,True,177
53116,-0.761201,-1.786629,1015.957,-1,-0.309082, 0.03662109, -0.9101563, -0.006875038, -0.3446875, 0.1721876,125.6389,5,4,True,True,177
53193,0.1297373,1.020676,1015.854,-1,-0.3100586, 0.03759766, -0.9116211, 0.008749962, -0.3290625, 0.1409376,125.6389,5,4,True,True,177
53272,1.718925,3.308113,1015.77,-1,-0.3110352, 0.03759766, -0.9101563, -0.02250004, -0.2196875, 0.1253126,125.6389,5,4,True,True,177
53352,1.673061,1.627197,1015.832,-1,-0.3105469, 0.03662109, -0.9106445, -0.006875038, -0.2821875, 0.1096876,125.6389,5,4,True,True,177
53433,1.078268,0.4834747,1015.874,-1,-0.3110352, 0.03710938, -0.909668, 0.05562496, -0.2821875, 0.1409376,125.6389,5,4,True,True,177
53513,0.07038403,-0.9375,1015.926,-1,-0.3105469, 0.03710938, -0.9091797, 0.03999996, -0.3446875, 0.1253126,125.6389,5,4,True,True,177
53595,1.152048,2.233711,1015.81,-1,-0.3115234, 0.03710938, -0.9111328, -0.006875038, -0.2821875, 0.1409376,125.6389,5,4,True,True,177
53681,0.8177612,0.4834747,1015.874,40.35339,-0.3110352, 0.03857422, -0.9091797, 0.02437496, -0.3759375, 0.1565626,125.6389,5,4,True,True,177
53808,-0.18984,-1.197441,1015.936,-1,-0.3105469, 0.03710938, -0.9082031, -0.006875038, -0.2821875, 0.1253126,125.6389,5,4,True,True,177
53872,-0.6936405,-1.197441,1015.936,-1,-0.3095703, 0.03662109, -0.9106445, -0.02250004, -0.2665625, 0.1565626,125.6389,5,4,True,True,177
54041,-0.2437128,0.2062149,1015.884,-1,-0.3110352, 0.03564453, -0.9106445, 0.008749962, -0.3446875, 0.1409376,125.6389,5,4,True,True,177
54106,1.124966,2.493645,1015.8,-1,-0.3100586, 0.03662109, -0.909668, 0.02437496, -0.3603125, 0.1565626,125.6389,5,4,True,True,177
54171,0.2323629,-0.6602402,1015.916,-1,-0.3100586, 0.03857422, -0.9077148, 0.03999996, -0.2978125, 0.1409376,125.6389,5,4,True,True,177
54236,-0.07530493,-0.3829727,1015.906,-1,-0.3105469, 0.03662109, -0.9111328, 0.02437496, -0.3446875, 0.1721876,125.6389,5,4,True,True,177
54302,0.4726854,1.020676,1015.854,-1,-0.3100586, 0.03710938, -0.9091797, -0.02250004, -0.3290625, 0.1253126,125.6389,5,4,True,True,177
54372,-0.9602287,-2.393143,1015.979,40.33515,-0.3095703, 0.03662109, -0.9091797, 0.02437496, -0.3759375, 0.1253126,125.6389,5,4,True,True,177
54440,-0.8362278,-0.7122269,1015.918,40.32603,-0.3110352, 0.03710938, -0.9121094, 0.008749962, -0.2821875, 0.1721876,125.6389,5,4,True,True,177
54508,-0.6355936,-0.4349594,1015.908,-1,-0.3100586, 0.03662109, -0.9130859, 0.02437496, -0.2821875, 0.1565626,125.6389,5,4,True,True,177
54576,-0.3966466,-0.1576996,1015.898,-1,-0.3095703, 0.03759766, -0.909668, 0.03999996, -0.3446875, 0.1253126,125.6389,5,4,True,True,177
54646,0.3986616,1.19397,1015.848,-1,-0.3095703, 0.03710938, -0.9101563, 0.03999996, -0.3446875, 0.1565626,125.6389,5,4,True,True,177
54716,1.064916,1.731171,1015.828,-1,-0.3095703, 0.03710938, -0.9116211, -0.006875038, -0.3134375, 0.1096876,125.6389,5,4,True,True,177
54788,0.1243579,-0.8162003,1015.922,-1,-0.3100586, 0.03759766, -0.9101563, 0.07124996, -0.2978125, 0.1253126,125.6389,5,4,True,True,177
54971,1.040401,1.956444,1015.82,40.26217,-0.3100586, 0.03662109, -0.9106445, 0.02437496, -0.2821875, 0.1096876,125.6389,5,4,True,True,177
55046,1.195165,1.34993,1015.842,40.25305,-0.309082, 0.03759766, -0.9135742, 0.008749962, -0.2978125, 0.1409376,125.6389,5,4,True,True,177
55121,1.549811,1.904457,1015.822,-1,-0.3115234, 0.03710938, -0.9125977, -0.006875038, -0.3290625, 0.1096876,125.6389,5,4,True,True,177
55195,0.8606829,0.1715546,1015.885,-1,-0.3095703, 0.03710938, -0.9121094, 0.118125, -0.3446875, 0.1096876,125.6389,5,4,True,True,177
55272,-0.2203658,-1.301414,1015.939,40.21656,-0.3100586, 0.03662109, -0.9125977, 0.1025, -0.2821875, 0.1096876,125.6389,5,4,True,True,177
55348,-0.6309196,-1.041473,1015.93,-1,-0.3115234, 0.03564453, -0.9106445, 0.07124996, -0.3446875, 0.07843757,125.6389,5,4,True,True,177
55427,0.5847821,1.800484,1015.826,-1,-0.3105469, 0.03710938, -0.9135742, 0.05562496, -0.2978125, 0.1409376,125.6389,5,4,True,True,177
55507,-0.2283457,-1.041473,1015.93,-1,-0.309082, 0.03759766, -0.9111328, 0.008749962, -0.3134375, 0.1409376,125.6389,5,4,True,True,177
55586,-0.4962796,-0.7642136,1015.919,40.21656,-0.3110352, 0.03857422, -0.9111328, -0.03812504, -0.2821875, 0.1878126,125.6389,5,4,True,True,177
55665,-0.4916129,-0.4869461,1015.909,40.21656,-0.3105469, 0.03710938, -0.9101563, -0.006875038, -0.3446875, 0.1096876,125.6389,5,4,True,True,177
55755,0.6544354,1.800484,1015.826,40.20744,-0.3100586, 0.03759766, -0.9106445, 0.008749962, -0.3446875, 0.1721876,125.6389,5,4,True,True,177
55837,0.6209455,0.5874557,1015.87,40.19831,-0.3115234, 0.03662109, -0.909668, 0.02437496, -0.3134375, 0.1096876,125.6389,5,4,True,True,177
56027,0.6042006,0.5874557,1015.87,-1,-0.3095703, 0.03759766, -0.9086914, -0.006875038, -0.3290625, 0.1409376,125.6389,5,4,True,True,177
56106,0.8730918,1.141983,1015.849,-1,-0.3105469, 0.03759766, -0.909668, 0.02437496, -0.2665625, 0.1409376,125.6389,5,4,True,True,177
56187,0.1410862,-0.5909195,1015.913,-1,-0.3100586, 0.03759766, -0.9106445, 0.02437496, -0.3134375, 0.1096876,125.6389,5,4,True,True,177
56272,1.187399,2.233711,1015.81,40.16183,-0.3100586, 0.03759766, -0.9077148, 0.08687496, -0.3603125, 0.1409376,125.6389,5,4,True,True,177
56404,-0.005021214,-1.197441,1015.935,-1,-0.3110352, 0.03759766, -0.9106445, -0.006875038, -0.3446875, 0.1409376,125.6389,5,4,True,True,177
56467,-0.02936989,-0.05371857,1015.894,-1,-0.309082, 0.03564453, -0.909668, 0.02437496, -0.3446875, 0.1409376,125.6389,5,4,True,True,177
56532,-0.3101447,-0.5909195,1015.913,-1,-0.3095703, 0.03662109, -0.9111328, 0.02437496, -0.2978125, 0.1565626,125.6389,5,4,True,True,177
56596,0.1213254,0.5527954,1015.871,-1,-0.3100586, 0.03808594, -0.9111328, -0.006875038, -0.2978125, 0.1409376,125.6389,5,4,True,True,177
56663,0.4756903,0.8300552,1015.861,-1,-0.3105469, 0.03613281, -0.9082031, -0.006875038, -0.3290625, 0.1409376,125.6389,5,4,True,True,177
56732,-0.2222417,-0.9201736,1015.925,40.16183,-0.3110352, 0.03808594, -0.9101563, 0.02437496, -0.3290625, 0.1253126,125.6389,5,4,True,True,177
56801,-0.1639773,-0.1057129,1015.895,40.1527,-0.3105469, 0.03613281, -0.9091797, -0.02250004, -0.3603125, 0.1565626,125.6389,5,4,True,True,177
56872,0.1684157,0.5008087,1015.873,40.13902,-0.3110352, 0.03564453, -0.9106445, 0.02437496, -0.3446875, 0.1721876,125.6389,5,4,True,True,177
57052,0.3086189,0.448822,1015.875,-1,-0.3095703, 0.03662109, -0.9106445, 0.05562496, -0.2665625, 0.1409376,125.6389,5,4,True,True,177
57123,-0.201804,-0.7122269,1015.917,-1,-0.3110352, 0.03662109, -0.909668, 0.008749962, -0.2509375, 0.1878126,125.6389,5,4,True,True,177
57193,-0.8902391,-1.578674,1015.949,-1,-0.3105469, 0.03710938, -0.9077148, 0.08687496, -0.2978125, 0.1409376,125.6389,5,4,True,True,177
57264,0.3424857,1.575211,1015.833,-1,-0.3095703, 0.03662109, -0.909668, 0.03999996, -0.3134375, 0.1096876,125.6389,5,4,True,True,177
57337,0.9588481,1.575211,1015.833,40.13446,-0.3100586, 0.03808594, -0.9082031, -0.006875038, -0.3134375, 0.1096876,125.6389,5,4,True,True,177
57411,0.1233106,-0.7122269,1015.917,40.13446,-0.3095703, 0.03515625, -0.9116211, -0.006875038, -0.3134375, 0.1409376,125.6389,5,4,True,True,177
57486,-0.7276819,-1.578674,1015.949,40.14359,-0.3115234, 0.03662109, -0.9101563, 0.02437496, -0.3134375, 0.1253126,125.6389,5,4,True,True,177
57562,0.5623942,1.85247,1015.823,40.12534,-0.3100586, 0.03662109, -0.9091797, 0.02437496, -0.3134375, 0.1565626,125.6389,5,4,True,True,177
57636,1.346066,2.129738,1015.813,40.13446,-0.3100586, 0.03808594, -0.9086914, 0.008749962, -0.3446875, 0.1409376,125.6389,5,4,True,True,177
57714,0.5941832,-0.1576996,1015.897,-1,-0.3120117, 0.03710938, -0.9116211, 0.03999996, -0.3134375, 0.1096876,125.6389,5,4,True,True,177
57788,1.760528,2.926872,1015.784,-1,-0.3100586, 0.0390625, -0.9086914, 0.008749962, -0.3915625, 0.1565626,125.6389,5,4,True,True,177
57863,0.2035633,-1.353401,1015.941,-1,-0.3085938, 0.03613281, -0.9101563, -0.006875038, -0.3446875, 0.1721876,125.6389,5,4,True,True,177
58047,0.5428026,0.8820419,1015.859,40.09797,-0.3100586, 0.03710938, -0.9091797, 0.03999996, -0.2509375, 0.1878126,125.6389,5,4,True,True,177
58127,1.14565,1.748497,1015.828,-1,-0.3095703, 0.03662109, -0.9101563, -0.006875038, -0.2978125, 0.1409376,125.6389,5,4,True,True,177
58206,0.7365822,0.3275146,1015.879,-1,-0.3100586, 0.03662109, -0.9116211, 0.03999996, -0.3134375, 0.1409376,125.6389,5,4,True,True,177
58287,1.24254,1.748497,1015.828,40.08885,-0.3110352, 0.03564453, -0.9091797, -0.006875038, -0.2821875, 0.09406257,125.6389,5,4,True,True,177
58368,-0.3500246,-1.942589,1015.963,-1,-0.3105469, 0.03613281, -0.9101563, 0.03999996, -0.3134375, 0.09406257,125.6389,5,4,True,True,177
58448,-0.3058488,-0.261673,1015.901,-1,-0.309082, 0.03662109, -0.9111328, 0.008749962, -0.3446875, 0.1565626,125.6389,5,4,True,True,177
58531,0.2880966,0.8820419,1015.859,40.09797,-0.3105469, 0.03759766, -0.9072266, -0.08500004, -0.3290625, 0.1253126,125.6389,5,4,True,True,177
58614,0.0132118,-0.261673,1015.901,-1,-0.3110352, 0.03662109, -0.9101563, 0.03999996, -0.3290625, 0.1409376,125.6389,5,4,True,True,177
58699,0.5775974,1.141983,1015.849,-1,-0.3105469, 0.03710938, -0.9091797, -0.03812504, -0.3446875, 0.1096876,125.6389,5,4,True,True,177
58782,1.163047,1.748497,1015.828,40.08885,-0.3095703, 0.03808594, -0.9106445, -0.02250004, -0.2509375, 0.07843757,125.6389,5,4,True,True,177
58922,0.7192876,0.275528,1015.881,40.08885,-0.309082, 0.03662109, -0.909668, 0.03999996, -0.3134375, 0.1878126,125.6389,5,4,True,True,177
58988,0.3587779,-0.001731873,1015.891,-1,-0.3105469, 0.03710938, -0.9106445, 0.08687496, -0.2509375, 0.1721876,125.6389,5,4,True,True,177
59162,-0.4106646,-1.180107,1015.935,-1,-0.3105469, 0.03662109, -0.9086914, -0.006875038, -0.3134375, 0.1096876,125.6389,5,4,True,True,177
59228,-0.6654191,-0.9201736,1015.925,-1,-0.3105469, 0.03710938, -0.909668, -0.006875038, -0.3290625, 0.1721876,125.6389,5,4,True,True,177
59293,1.06141,2.788239,1015.789,-1,-0.309082, 0.03759766, -0.909668, -0.006875038, -0.3134375, 0.09406257,125.6389,5,4,True,True,177
59358,1.352967,1.644524,1015.831,-1,-0.3110352, 0.03662109, -0.9072266, -0.006875038, -0.3446875, 0.1253126,125.6389,5,4,True,True,177
59425,1.056854,0.7607422,1015.863,-1,-0.3105469, 0.03710938, -0.9086914, -0.02250004, -0.2665625, 0.1253126,125.6389,5,4,True,True,177
59493,1.489323,1.921791,1015.821,-1,-0.3095703, 0.03613281, -0.9091797, -0.006875038, -0.2665625, 0.09406257,125.6389,5,4,True,True,177
59564,0.1199475,-1.249428,1015.937,-1,-0.3085938, 0.03662109, -0.9111328, 0.02437496, -0.2353125, 0.1096876,125.6389,5,4,True,True,177
59635,1.020869,1.921791,1015.821,-1,-0.3100586, 0.03857422, -0.9091797, -0.006875038, -0.3134375, 0.1096876,125.6389,5,4,True,True,177
59707,0.8734756,0.7260818,1015.865,40.04324,-0.3095703, 0.03955078, -0.9086914, 0.08687496, -0.3290625, 0.1096876,125.6389,5,4,True,True,177
59782,0.7997787,0.7260818,1015.865,40.03867,-0.3100586, 0.0390625, -0.9111328, 0.05562496, -0.3603125, 0.1878126,125.6389,5,4,True,True,177
59853,0.901564,1.003349,1015.855,40.02499,-0.3100586, 0.03662109, -0.9101563, 0.008749962, -0.3134375, 0.1409376,125.6389,5,4,True,True,177
59928,-0.06129151,-1.024147,1015.929,40.02499,-0.3105469, 0.03662109, -0.9106445, 0.008749962, -0.3134375, 0.1721876,125.6389,5,4,True,True,177
60108,0.8436028,1.748497,1015.827,-1,-0.3095703, 0.03808594, -0.9086914, 0.05562496, -0.2821875, 0.1253126,125.6389,5,4,True,True,177
60182,0.4036053,-0.03639221,1015.893,39.97938,-0.3100586, 0.03808594, -0.9130859, -0.006875038, -0.2978125, 0.1096876,125.6389,5,4,True,True,177
60254,0.5908369,0.7780685,1015.863,-1,-0.3105469, 0.03662109, -0.9121094, 0.02437496, -0.3446875, 0.1409376,125.6389,5,4,True,True,177
60328,0.5198295,0.448822,1015.875,-1,-0.309082, 0.03759766, -0.9121094, 0.02437496, -0.3134375, 0.1409376,125.6389,5,4,True,True,177
60404,0.3283618,0.1368942,1015.887,-1,-0.3105469, 0.03710938, -0.9111328, 0.03999996, -0.2353125, 0.1096876,125.6389,5,4,True,True,177
60482,-0.7984465,-1.925255,1015.962,39.89271,-0.309082, 0.04003906, -0.9121094, -0.006875038, -0.2978125, 0.1096876,125.6389,5,4,True,True,177
60560,-0.1141623,0.5701218,1015.87,-1,-0.3095703, 0.03759766, -0.9106445, 0.02437496, -0.2509375, 0.1721876,125.6389,5,4,True,True,177
60640,-1.643557,-3.172951,1016.008,-1,-0.3115234, 0.03710938, -0.9121094, -0.02250004, -0.3446875, 0.1409376,125.6389,5,4,True,True,177
60722,0.8582716,3.3601,1015.768,39.86078,-0.3105469, 0.03808594, -0.9101563, -0.03812504, -0.3134375, 0.1409376,125.6389,5,4,True,True,177
60803,-0.01362085,-0.8855133,1015.924,39.8699,-0.3095703, 0.03759766, -0.9086914, 0.008749962, -0.2665625, 0.09406257,125.6389,5,4,True,True,177
60885,-0.1809666,-0.3483124,1015.904,-1,-0.3105469, 0.03662109, -0.9101563, 0.02437496, -0.1884375, 0.1878126,125.6389,5,4,True,True,177
60967,0.02995431,0.2408752,1015.882,-1,-0.3085938, 0.03710938, -0.9116211, 0.03999996, -0.2040625, 0.1721876,125.6389,5,4,True,True,177
61160,1.12317,2.216385,1015.81,-1,-0.3125, 0.03808594, -0.9106445, 0.05562496, -0.3446875, 0.1096876,125.6389,5,4,True,True,177
61243,1.64378,2.164391,1015.812,-1,-0.3095703, 0.03564453, -0.9121094, 0.008749962, -0.2978125, 0.1721876,125.6389,5,4,True,True,177
61325,1.600828,1.557877,1015.834,-1,-0.3100586, 0.03808594, -0.9111328, -0.006875038, -0.3446875, 0.1721876,125.6389,5,4,True,True,177
61409,1.847953,2.095078,1015.814,-1,-0.3085938, 0.03662109, -0.9135742, 0.008749962, -0.2196875, 0.1409376,125.6389,5,4,True,True,177
61544,1.105064,0.362175,1015.878,-1,-0.3105469, 0.03662109, -0.9106445, -0.03812504, -0.1259375, 0.1721876,125.6389,5,4,True,True,177
61608,0.7336195,0.362175,1015.878,-1,-0.3095703, 0.03710938, -0.9111328, -0.006875038, -0.2353125, 0.1096876,125.6389,5,4,True,True,177
61673,-0.9943849,-2.722389,1015.992,-1,-0.3085938, 0.03759766, -0.9125977, 0.008749962, -0.3290625, 0.1096876,125.6389,5,4,True,True,177
61738,-0.4460717,0.1022415,1015.888,-1,-0.3095703, 0.03759766, -0.9106445, 0.008749962, -0.2821875, 0.1253126,125.6389,5,4,True,True,177
61805,0.09668538,0.6394424,1015.868,-1,-0.3081055, 0.03613281, -0.9111328, 0.02437496, -0.2353125, 0.1096876,125.6389,5,4,True,True,177
61874,0.6366606,1.176636,1015.848,-1,-0.309082, 0.03710938, -0.9101563, -0.006875038, -0.1728125, 0.1878126,125.6389,5,4,True,True,177
61944,-0.2284036,-1.093468,1015.932,-1,-0.3100586, 0.03857422, -0.9121094, 0.02437496, -0.2665625, 0.06281257,125.6389,5,4,True,True,177
62024,0.01489902,0.2582016,1015.882,39.77868,-0.3095703, 0.03808594, -0.9111328, 0.07124996, -0.2665625, 0.1721876,125.6389,5,4,True,True,177
62200,-0.04540694,-0.1057129,1015.895,-1,-0.309082, 0.03710938, -0.9121094, 0.008749962, -0.2821875, 0.1565626,125.6389,5,4,True,True,177
62271,-0.2141898,-0.3829727,1015.906,-1,-0.3100586, 0.03613281, -0.9121094, 0.03999996, -0.3446875, 0.1253126,125.6389,5,4,True,True,177
62344,-0.1599514,-0.1057129,1015.895,39.74218,-0.309082, 0.03808594, -0.9111328, 0.08687496, -0.3603125, 0.1096876,125.6389,5,4,True,True,177
62416,-0.1328321,-0.1057129,1015.895,-1,-0.3085938, 0.03808594, -0.9130859, 0.03999996, -0.3603125, 0.1096876,125.6389,5,4,True,True,177
62489,0.01069804,0.1542282,1015.886,39.74218,-0.309082, 0.03662109, -0.909668, 0.008749962, -0.2665625, 0.2034376,125.6389,5,4,True,True,177
62564,0.3597268,0.7087555,1015.865,-1,-0.3105469, 0.03808594, -0.9111328, 0.05562496, -0.2978125, 0.1253126,125.6389,5,4,True,True,177
62639,0.3956074,0.431488,1015.876,39.71938,-0.3095703, 0.03759766, -0.9091797, 0.05562496, -0.2821875, 0.1409376,125.6389,5,4,True,True,177
62713,0.6821482,0.968689,1015.856,-1,-0.3105469, 0.03808594, -0.9116211, -0.03812504, -0.2509375, 0.2034376,125.6389,5,4,True,True,177
62789,0.236231,-0.2096863,1015.899,39.70569,-0.3095703, 0.03759766, -0.9121094, -0.006875038, -0.2665625, 0.1721876,125.6389,5,4,True,True,177
62865,0.4118433,0.5874557,1015.87,-1,-0.3105469, 0.03564453, -0.909668, 0.02437496, -0.3134375, 0.1565626,125.6389,5,4,True,True,177
62943,0.4996496,0.5874557,1015.87,39.69201,-0.3085938, 0.03613281, -0.9125977, 0.02437496, -0.3134375, 0.1096876,125.6389,5,4,True,True,177
63021,1.964531,3.429413,1015.765,-1,-0.3100586, 0.03662109, -0.909668, 0.03999996, -0.3134375, 0.1409376,125.6389,5,4,True,True,177
63208,1.275993,0.5874557,1015.87,-1,-0.3095703, 0.03710938, -0.909668, -0.006875038, -0.3759375, 0.1409376,125.6389,5,4,True,True,177
63283,-0.9051551,-3.086304,1016.005,-1,-0.3085938, 0.03564453, -0.9106445, 0.008749962, -0.2821875, 0.09406257,125.6389,5,4,True,True,177
63363,0.5516376,2.00843,1015.817,-1,-0.309082, 0.03759766, -0.9106445, 0.02437496, -0.2978125, 0.1096876,125.6389,5,4,True,True,177
63439,0.006352425,-0.5389328,1015.911,-1,-0.309082, 0.03808594, -0.9091797, 0.05562496, -0.2665625, 0.1409376,125.6389,5,4,True,True,177
63518,-0.1016669,-0.2096863,1015.899,-1,-0.3085938, 0.03808594, -0.909668, -0.006875038, -0.2978125, 0.1096876,125.6389,5,4,True,True,177
63599,0.9533817,2.00843,1015.817,-1,-0.3095703, 0.03759766, -0.9116211, -0.02250004, -0.3134375, 0.1096876,125.6389,5,4,True,True,177
63682,-0.2260031,-1.405388,1015.943,39.68744,-0.309082, 0.03662109, -0.9091797, 0.008749962, -0.2821875, 0.1721876,125.6389,5,4,True,True,177
63765,1.038511,2.303024,1015.807,-1,-0.3095703, 0.03515625, -0.9106445, 0.02437496, -0.3134375, 0.1409376,125.6389,5,4,True,True,177
63849,2.372595,3.70668,1015.756,39.68744,-0.3100586, 0.03662109, -0.9082031, 0.02437496, -0.3134375, 0.1096876,125.6389,5,4,True,True,177
63933,2.034553,1.69651,1015.829,39.68288,-0.3095703, 0.0390625, -0.9116211, 0.02437496, -0.2509375, 0.1253126,125.6389,5,4,True,True,177
64064,1.596931,1.159309,1015.849,39.68744,-0.309082, 0.03857422, -0.9082031, -0.05375004, -0.3290625, 0.1096876,125.6389,5,4,True,True,177
64129,1.239486,0.8820419,1015.859,39.68744,-0.3110352, 0.03808594, -0.9116211, 0.07124996, -0.2353125, 0.1409376,125.6389,5,4,True,True,177
64303,1.199398,1.159309,1015.849,39.68288,-0.3110352, 0.03857422, -0.9082031, 0.02437496, -0.2509375, 0.1096876,125.6389,5,4,True,True,177
64369,-0.2416249,-1.682648,1015.953,-1,-0.3100586, 0.03710938, -0.9101563, 0.05562496, -0.2040625, 0.1878126,125.6389,5,4,True,True,177
64434,0.3202085,0.8820419,1015.859,-1,-0.3095703, 0.03710938, -0.909668, 0.008749962, -0.2196875, 0.1565626,125.6389,5,4,True,True,177
64501,0.3238616,0.3275146,1015.879,-1,-0.3085938, 0.03613281, -0.9125977, 0.008749962, -0.2821875, 0.1253126,125.6389,5,4,True,True,177
64570,-0.8093636,-1.942589,1015.963,-1,-0.309082, 0.03710938, -0.9116211, 0.05562496, -0.2196875, 0.1409376,125.6389,5,4,True,True,177
64639,-1.375976,-1.942589,1015.963,-1,-0.3095703, 0.03662109, -0.9140625, 0.05562496, -0.2353125, 0.1409376,125.6389,5,4,True,True,177
64706,0.1775972,1.731171,1015.828,-1,-0.3085938, 0.03710938, -0.9111328, 0.02437496, -0.1884375, 0.1253126,125.6389,5,4,True,True,177
64775,-0.3366317,-0.8508606,1015.923,-1,-0.3100586, 0.03710938, -0.9101563, 0.02437496, -0.2821875, 0.1096876,125.6389,5,4,True,True,177
64844,0.08208852,0.5008087,1015.873,-1,-0.3085938, 0.03710938, -0.9086914, 0.05562496, -0.3290625, 0.1565626,125.6389,5,4,True,True,177
64916,0.1354847,0.1888809,1015.885,-1,-0.3085938, 0.03759766, -0.9106445, 0.02437496, -0.2978125, 0.1878126,125.6389,5,4,True,True,177
64990,0.1275263,0.1195679,1015.887,39.62358,-0.3105469, 0.03710938, -0.9121094, -0.006875038, -0.3134375, 0.1721876,125.6389,5,4,True,True,177
65064,-1.332092,-2.79171,1015.994,39.6099,-0.3100586, 0.03857422, -0.9121094, 0.008749962, -0.2978125, 0.1253126,125.6389,5,4,True,True,177
65255,-1.931934,-2.531776,1015.984,-1,-0.3105469, 0.03564453, -0.9116211, 0.02437496, -0.3134375, 0.1253126,125.6389,5,4,True,True,177
65330,-1.088137,-0.244339,1015.9,-1,-0.3105469, 0.03710938, -0.9121094, 0.008749962, -0.3603125, 0.1721876,125.6389,5,4,True,True,177
65405,-1.809957,-2.531776,1015.984,-1,-0.309082, 0.03662109, -0.9091797, 0.02437496, -0.3446875, 0.1721876,125.6389,5,4,True,True,177
65481,-1.027148,-0.244339,1015.9,-1,-0.3095703, 0.03613281, -0.9106445, -0.006875038, -0.3290625, 0.1253126,125.6389,5,4,True,True,177
65559,-1.909429,-2.79171,1015.994,39.59621,-0.3095703, 0.03710938, -0.9111328, -0.006875038, -0.3290625, 0.1409376,125.6389,5,4,True,True,177
65640,-0.07180274,1.765823,1015.827,39.60534,-0.3095703, 0.03857422, -0.9135742, -0.006875038, -0.2353125, 0.09406257,125.6389,5,4,True,True,177
65719,0.5697467,1.211296,1015.847,39.60534,-0.3100586, 0.03759766, -0.9121094, 0.05562496, -0.2978125, 0.1565626,125.6389,5,4,True,True,177
65797,0.7605547,0.9513626,1015.857,-1,-0.309082, 0.03710938, -0.9116211, 0.07124996, -0.2665625, 0.1409376,125.6389,5,4,True,True,177
65876,0.7173249,0.6740952,1015.867,-1,-0.3105469, 0.03710938, -0.9106445, 0.008749962, -0.2196875, 0.1409376,125.6389,5,4,True,True,177
65957,0.9643106,1.211296,1015.847,-1,-0.3085938, 0.03759766, -0.9125977, -0.03812504, -0.2978125, 0.1253126,125.6389,5,4,True,True,177
66036,1.087803,1.211296,1015.847,-1,-0.309082, 0.03857422, -0.9121094, 0.05562496, -0.3134375, 0.1409376,125.6389,5,4,True,True,177
66120,1.14955,1.211296,1015.847,39.60534,-0.3095703, 0.03808594, -0.9125977, 0.03999996, -0.2821875, 0.1253126,125.6389,5,4,True,True,177
66307,1.75228,2.355011,1015.805,-1,-0.3085938, 0.03710938, -0.9101563, 0.02437496, -0.3134375, 0.1409376,125.6389,5,4,True,True,177
66386,-0.08648724,-1.925255,1015.962,-1,-0.3095703, 0.03710938, -0.9111328, 0.05562496, -0.2978125, 0.1096876,125.6389,5,4,True,True,177
66470,0.1291807,0.3448486,1015.879,-1,-0.3095703, 0.03759766, -0.9106445, 0.008749962, -0.2665625, 0.1253126,125.6389,5,4,True,True,177
66555,-1.062664,-2.254509,1015.974,39.59165,-0.3105469, 0.03808594, -0.9082031, 0.02437496, -0.2821875, 0.1565626,125.6389,5,4,True,True,177
66701,0.3515796,1.765823,1015.827,-1,-0.309082, 0.03808594, -0.9077148, 0.008749962, -0.2509375, 0.09406257,125.6389,5,4,True,True,177
66764,0.1922502,0.03292084,1015.89,-1,-0.3105469, 0.03808594, -0.9072266, 0.02437496, -0.2665625, 0.1253126,125.6389,5,4,True,True,177
66830,1.524901,2.857552,1015.787,39.58709,-0.309082, 0.03662109, -0.9106445, 0.02437496, -0.3290625, 0.1409376,125.6389,5,4,True,True,177
66894,-0.6593978,-2.843697,1015.996,-1,-0.3100586, 0.03857422, -0.9116211, 0.03999996, -0.2509375, 0.1409376,125.6389,5,4,True,True,177
66961,-1.595587,-2.531776,1015.984,-1,-0.3095703, 0.03759766, -0.9067383, 0.008749962, -0.2821875, 0.09406257,125.6389,5,4,True,True,177
67031,-1.223224,-0.8508606,1015.922,-1,-0.3100586, 0.03710938, -0.9082031, 0.02437496, -0.2665625, 0.1878126,125.6389,5,4,True,True,177
67100,1.085764,3.394753,1015.767,-1,-0.3100586, 0.03662109, -0.9111328, -0.006875038, -0.2040625, 0.1409376,125.6389,5,4,True,True,177
67170,0.827943,0.5701218,1015.87,39.57796,-0.3085938, 0.03613281, -0.9091797, 0.008749962, -0.2665625, 0.1565626,125.6389,5,4,True,True,177
67346,-0.869243,-2.566429,1015.986,-1,-0.3095703, 0.03613281, -0.9091797, -0.006875038, -0.2821875, 0.1409376,125.6389,5,4,True,True,177
67414,-1.016012,-1.162781,1015.934,-1,-0.3100586, 0.03613281, -0.9106445, 0.02437496, -0.2509375, 0.07843757,125.6389,5,4,True,True,177
67484,-0.2489384,0.5181351,1015.872,39.56884,-0.3095703, 0.03662109, -0.9106445, 0.02437496, -0.2509375, 0.1253126,125.6389,5,4,True,True,177
67556,0.004631579,0.2582016,1015.882,-1,-0.3110352, 0.03710938, -0.9106445, 0.008749962, -0.2509375, 0.1565626,125.6389,5,4,True,True,177
67630,-0.4404408,-0.8855133,1015.924,39.56884,-0.3100586, 0.03710938, -0.909668, 0.03999996, -0.2665625, 0.09406257,125.6389,5,4,True,True,177
67701,0.1774808,0.7954025,1015.862,-1,-0.3110352, 0.03662109, -0.9116211, -0.006875038, -0.2509375, 0.1253126,125.6389,5,4,True,True,177
67779,-0.08541577,-0.3483124,1015.904,39.55972,-0.3120117, 0.03710938, -0.9091797, -0.006875038, -0.2353125, 0.1721876,125.6389,5,4,True,True,177
67855,-0.9273552,-1.769295,1015.956,39.55515,-0.309082, 0.03515625, -0.9106445, -0.006875038, -0.2821875, 0.1409376,125.6389,5,4,True,True,177
67931,-0.4992039,-0.07105255,1015.894,-1,-0.3105469, 0.03710938, -0.9106445, 0.03999996, -0.3134375, 0.09406257,125.6389,5,4,True,True,177
68005,-0.2851282,-0.07105255,1015.894,-1,-0.3095703, 0.03857422, -0.9077148, -0.006875038, -0.2509375, 0.07843757,125.6389,5,4,True,True,177
68084,0.09051007,0.4661484,1015.874,39.55059,-0.3100586, 0.03857422, -0.9086914, 0.07124996, -0.2821875, 0.1409376,125.6389,5,4,True,True,177
68162,-0.284865,-0.6602402,1015.916,-1,-0.3095703, 0.03808594, -0.9057617, 0.02437496, -0.3134375, 0.07843757,125.6389,5,4,True,True,177
68360,-0.9057763,-1.526688,1015.948,39.53235,-0.3095703, 0.03613281, -0.9106445, 0.008749962, -0.2509375, 0.1253126,125.6389,5,4,True,True,177
68439,-2.221317,-3.536858,1016.021,39.52322,-0.3095703, 0.03662109, -0.909668, 0.03999996, -0.2978125, 0.1409376,125.6389,5,4,True,True,177
68516,-2.30723,-2.393143,1015.98,-1,-0.3105469, 0.03710938, -0.909668, 0.008749962, -0.2509375, 0.1721876,125.6389,5,4,True,True,177
68594,-0.3746767,1.557877,1015.834,39.52322,-0.3100586, 0.03759766, -0.9091797, 0.02437496, -0.2821875, 0.1253126,125.6389,5,4,True,True,177
68675,0.02840567,0.431488,1015.876,39.52322,-0.3105469, 0.03808594, -0.9082031, -0.02250004, -0.3446875, 0.1409376,125.6389,5,4,True,True,177
68759,-0.7751343,-1.578674,1015.95,39.52322,-0.3100586, 0.03613281, -0.9101563, 0.05562496, -0.3446875, 0.1253126,125.6389,5,4,True,True,177
68839,-1.341531,-1.907928,1015.962,-1,-0.309082, 0.03710938, -0.9091797, 0.05562496, -0.2978125, 0.1096876,125.6389,5,4,True,True,177
68921,-0.481015,0.3795013,1015.878,-1,-0.3100586, 0.03564453, -0.9106445, 0.05562496, -0.2821875, 0.1565626,125.6389,5,4,True,True,177
69002,-2.060923,-3.640831,1016.025,-1,-0.3095703, 0.03808594, -0.9101563, 0.02437496, -0.2509375, 0.1409376,125.6389,5,4,True,True,177
69131,-1.161298,-0.261673,1015.901,-1,-0.3110352, 0.03613281, -0.9106445, 0.03999996, -0.2821875, 0.1096876,125.6389,5,4,True,True,177
69191,-1.560607,-1.959915,1015.964,-1,-0.3085938, 0.03808594, -0.9077148, -0.02250004, -0.2665625, 0.1409376,125.6389,5,4,True,True,177
69255,-1.924888,-2.289169,1015.975,39.4776,-0.309082, 0.03662109, -0.909668, -0.006875038, -0.2978125, 0.1096876,125.6389,5,4,True,True,177
69427,-1.968395,-2.011902,1015.965,-1,-0.3105469, 0.03759766, -0.909668, -0.02250004, -0.2821875, 0.1409376,125.6389,5,4,True,True,177
69491,-1.418291,-0.868187,1015.923,-1,-0.3100586, 0.03710938, -0.9082031, 0.02437496, -0.2978125, 0.09406257,125.6389,5,4,True,True,177
69556,-1.437833,-1.457375,1015.945,-1,-0.309082, 0.03808594, -0.9101563, 0.008749962, -0.3290625, 0.09406257,125.6389,5,4,True,True,177
69621,-0.03528827,1.367256,1015.841,-1,-0.3110352, 0.03710938, -0.9091797, -0.02250004, -0.2821875, 0.1409376,125.6389,5,4,True,True,177
69690,-0.6076977,-1.180107,1015.935,39.45023,-0.3115234, 0.03613281, -0.9121094, 0.03999996, -0.2821875, 0.1409376,125.6389,5,4,True,True,177
69760,0.3797792,1.367256,1015.841,39.44111,-0.3100586, 0.03613281, -0.9116211, 0.02437496, -0.3134375, 0.1409376,125.6389,5,4,True,True,177
69830,0.5702607,0.7607422,1015.863,-1,-0.3110352, 0.03808594, -0.9086914, -0.006875038, -0.2665625, 0.1096876,125.6389,5,4,True,True,177
69901,-0.4695503,-1.509361,1015.947,39.43198,-0.3100586, 0.03759766, -0.9116211, 0.05562496, -0.2821875, 0.1096876,125.6389,5,4,True,True,177
69971,0.7174534,1.904457,1015.821,-1,-0.3100586, 0.03710938, -0.909668, 0.02437496, -0.2821875, 0.1253126,125.6389,5,4,True,True,177
70040,0.444504,0.1715546,1015.885,-1,-0.3110352, 0.03662109, -0.9086914, 0.05562496, -0.2196875, 0.1721876,125.6389,5,4,True,True,177
70116,0.446663,0.448822,1015.875,39.43198,-0.3095703, 0.03710938, -0.909668, 0.02437496, -0.2978125, 0.1721876,125.6389,5,4,True,True,177
70188,1.721424,2.996185,1015.781,-1,-0.3095703, 0.03808594, -0.9101563, -0.02250004, -0.2978125, 0.1721876,125.6389,5,4,True,True,177
70371,1.223753,0.7260818,1015.865,-1,-0.3100586, 0.03710938, -0.9106445, 0.008749962, -0.3134375, 0.06281257,125.6389,5,4,True,True,177
70445,0.2384367,-0.7468796,1015.919,39.4183,-0.3105469, 0.03759766, -0.9082031, 0.02437496, -0.2978125, 0.1253126,125.6389,5,4,True,True,177
70520,0.1790023,0.1195679,1015.887,39.41374,-0.3095703, 0.0390625, -0.9106445, 0.05562496, -0.2978125, 0.1409376,125.6389,5,4,True,True,177
70596,0.8511093,1.523216,1015.835,-1,-0.309082, 0.03710938, -0.9101563, 0.008749962, -0.2665625, 0.1253126,125.6389,5,4,True,True,177
70675,1.33446,1.81781,1015.825,39.4183,-0.3105469, 0.03710938, -0.9111328, 0.02437496, -0.2665625, 0.09406257,125.6389,5,4,True,True,177
70755,1.272878,1.211296,1015.847,39.39549,-0.3110352, 0.03759766, -0.9106445, 0.02437496, -0.3446875, 0.1253126,125.6389,5,4,True,True,177
70832,1.354727,1.436577,1015.839,-1,-0.3100586, 0.03662109, -0.9111328, 0.05562496, -0.2509375, 0.1409376,125.6389,5,4,True,True,177
70910,0.7978013,0.2408752,1015.883,-1,-0.3095703, 0.03710938, -0.9086914, 0.02437496, -0.2821875, 0.1253126,125.6389,5,4,True,True,177
70991,1.065202,1.332603,1015.842,39.33162,-0.3100586, 0.03662109, -0.9106445, -0.006875038, -0.2665625, 0.1409376,125.6389,5,4,True,True,177
71071,0.6097153,0.1542282,1015.886,-1,-0.3095703, 0.03808594, -0.9116211, 0.02437496, -0.2821875, 0.1721876,125.6389,5,4,True,True,177
71151,-0.761747,-2.133209,1015.97,39.30882,-0.3100586, 0.03808594, -0.9106445, -0.006875038, -0.2353125, 0.1253126,125.6389,5,4,True,True,177
71235,-0.03515893,0.6914291,1015.866,39.31338,-0.3095703, 0.03808594, -0.9130859, 0.008749962, -0.2821875, 0.1409376,125.6389,5,4,True,True,177
71431,0.3281351,0.6914291,1015.866,-1,-0.3115234, 0.03564453, -0.9116211, 0.03999996, -0.2821875, 0.1253126,125.6389,5,4,True,True,177
71513,0.3711484,0.4141617,1015.876,-1,-0.3095703, 0.03710938, -0.909668, 0.02437496, -0.3134375, 0.1253126,125.6389,5,4,True,True,177
71596,1.53637,2.701591,1015.792,39.31794,-0.3095703, 0.03710938, -0.9082031, -0.02250004, -0.2821875, 0.1565626,125.6389,5,4,True,True,177
71726,2.144974,2.753578,1015.791,-1,-0.3095703, 0.03857422, -0.9082031, 0.02437496, -0.2978125, 0.1253126,125.6389,5,4,True,True,177
71788,0.7423669,-0.6602402,1015.916,-1,-0.3100586, 0.03710938, -0.9077148, -0.02250004, -0.2353125, 0.1096876,125.6389,5,4,True,True,177
71852,1.037485,1.332603,1015.842,-1,-0.3095703, 0.03662109, -0.9116211, 0.08687496, -0.2978125, 0.1253126,125.6389,5,4,True,True,177
71918,1.600938,2.164391,1015.812,-1,-0.3110352, 0.03710938, -0.9101563, 0.02437496, -0.3134375, 0.1096876,125.6389,5,4,True,True,177
71986,0.7389493,-0.1230392,1015.896,39.3225,-0.3095703, 0.03759766, -0.9077148, 0.08687496, -0.2509375, 0.1096876,125.6389,5,4,True,True,177
72052,0.7411826,0.7434158,1015.864,-1,-0.3105469, 0.03710938, -0.9082031, 0.008749962, -0.3134375, 0.09406257,125.6389,5,4,True,True,177
72122,0.5776721,0.4141617,1015.876,39.31338,-0.3105469, 0.03710938, -0.9106445, 0.03999996, -0.3290625, 0.1565626,125.6389,5,4,True,True,177
72192,0.6345506,0.6914291,1015.866,-1,-0.3100586, 0.03759766, -0.9077148, 0.07124996, -0.3134375, 0.1253126,125.6389,5,4,True,True,177
72263,0.3943894,0.1542282,1015.886,-1,-0.3105469, 0.03857422, -0.9091797, -0.02250004, -0.2509375, 0.1409376,125.6389,5,4,True,True,177
72441,1.253397,2.112404,1015.814,-1,-0.309082, 0.03662109, -0.909668, 0.008749962, -0.3603125, 0.1409376,125.6389,5,4,True,True,177
72512,1.111043,0.968689,1015.856,-1,-0.3100586, 0.03808594, -0.9091797, 0.02437496, -0.2509375, 0.1096876,125.6389,5,4,True,True,177
72582,0.3380417,-0.4349594,1015.908,-1,-0.3110352, 0.03613281, -0.909668, 0.03999996, -0.2040625, 0.1721876,125.6389,5,4,True,True,177
72656,0.6533653,0.968689,1015.856,39.30425,-0.3100586, 0.03710938, -0.9101563, 0.03999996, -0.3290625, 0.1253126,125.6389,5,4,True,True,177
72731,0.8110271,0.968689,1015.856,39.29969,-0.309082, 0.03710938, -0.9077148, 0.08687496, -0.2821875, 0.1096876,125.6389,5,4,True,True,177
72803,0.8898581,0.968689,1015.856,-1,-0.3095703, 0.03613281, -0.909668, 0.008749962, -0.2821875, 0.1409376,125.6389,5,4,True,True,177
72877,-0.3444081,-1.578674,1015.95,-1,-0.3105469, 0.03710938, -0.9111328, 0.02437496, -0.2353125, 0.1253126,125.6389,5,4,True,True,177
72952,1.022632,2.389671,1015.804,-1,-0.3095703, 0.03564453, -0.9082031, -0.006875038, -0.2353125, 0.1096876,125.6389,5,4,True,True,177
73026,-0.2780213,-1.578674,1015.95,-1,-0.3095703, 0.03808594, -0.9111328, 0.008749962, -0.2353125, 0.09406257,125.6389,5,4,True,True,177
73101,1.480386,3.238792,1015.772,-1,-0.3095703, 0.03662109, -0.9082031, 0.03999996, -0.2509375, 0.1721876,125.6389,5,4,True,True,177
73177,1.224537,0.968689,1015.856,-1,-0.3100586, 0.03759766, -0.909668, 0.008749962, -0.2821875, 0.1409376,125.6389,5,4,True,True,177
73257,-0.6102961,-2.445129,1015.981,39.31338,-0.3100586, 0.03759766, -0.9091797, -0.006875038, -0.3134375, 0.1409376,125.6389,5,4,True,True,177
73443,0.1791965,0.968689,1015.856,-1,-0.3095703, 0.03662109, -0.9091797, -0.006875038, -0.2196875, 0.2034376,125.6389,5,4,True,True,177
73521,0.5739427,0.968689,1015.856,-1,-0.3081055, 0.03613281, -0.9101563, 0.07124996, -0.2665625, 0.1409376,125.6389,5,4,True,True,177
73602,-0.9355934,-2.445129,1015.981,39.286,-0.3115234, 0.03759766, -0.9091797, 0.03999996, -0.2196875, 0.1096876,125.6389,5,4,True,True,177
73682,-0.7112698,-0.4869461,1015.91,39.30425,-0.3100586, 0.03808594, -0.909668, 0.008749962, -0.2978125, 0.1409376,125.6389,5,4,True,True,177
73767,0.5359438,1.783157,1015.826,39.28144,-0.3095703, 0.03759766, -0.9091797, -0.02250004, -0.2978125, 0.1409376,125.6389,5,4,True,True,177
73847,1.29818,2.060417,1015.816,-1,-0.3100586, 0.03759766, -0.9106445, 0.02437496, -0.3134375, 0.07843757,125.6389,5,4,True,True,177
73927,0.4056172,-0.4869461,1015.91,-1,-0.3110352, 0.03662109, -0.9086914, -0.03812504, -0.2978125, 0.1253126,125.6389,5,4,True,True,177
74012,0.6611598,0.9167023,1015.858,39.286,-0.3095703, 0.03662109, -0.9082031, 0.03999996, -0.3134375, 0.1721876,125.6389,5,4,True,True,177
74096,-0.216154,-1.093468,1015.931,-1,-0.3105469, 0.03808594, -0.9101563, -0.006875038, -0.2978125, 0.1253126,125.6389,5,4,True,True,177
74232,-0.3775434,-0.5389328,1015.911,39.26776,-0.3095703, 0.03662109, -0.9082031, 0.008749962, -0.2665625, 0.1565626,125.6389,5,4,True,True,177
74297,-0.8914657,-1.405388,1015.943,39.27232,-0.3105469, 0.03662109, -0.9067383, 0.02437496, -0.2665625, 0.1096876,125.6389,5,4,True,True,177
74362,-1.148427,-1.405388,1015.943,39.26319,-0.3095703, 0.03759766, -0.9077148, 0.02437496, -0.2821875, 0.1409376,125.6389,5,4,True,True,177
74547,-0.9996437,-0.8508606,1015.923,39.26319,-0.3100586, 0.03710938, -0.909668, 0.02437496, -0.3446875, 0.1096876,125.6389,5,4,True,True,177
74623,-0.5006878,-0.001731873,1015.891,-1,-0.3110352, 0.03613281, -0.9111328, 0.02437496, -0.2509375, 0.1409376,125.6389,5,4,True,True,177
74689,1.438369,3.377426,1015.768,-1,-0.3100586, 0.03564453, -0.9086914, 0.02437496, -0.2978125, 0.1253126,125.6389,5,4,True,True,177
74758,0.7009885,-0.03639221,1015.893,39.24951,-0.3115234, 0.03662109, -0.9106445, -0.006875038, -0.2665625, 0.1721876,125.6389,5,4,True,True,177
74827,0.3322981,-0.03639221,1015.893,39.24039,-0.3100586, 0.03613281, -0.9091797, 0.07124996, -0.2509375, 0.1253126,125.6389,5,4,True,True,177
74897,0.4165534,0.5008087,1015.873,39.24495,-0.309082, 0.03662109, -0.9101563, -0.006875038, -0.2821875, 0.1096876,125.6389,5,4,True,True,177
