time_launch_ms,filtered_altitude_ft,unfiltered_altitude_ft,pressure,temperature,acceleration_x_g,acceleration_y_g,acceleration_z_g,gyro_x_rate,gyro_y_rate,gyro_z_rate,max_altitude_ft,apogee_counter,event#,servo_x_state,servo_y_state,error_flag 
10,-3.343836,-5.559166,1015.778,-1,-1.258789, 15.99951, -4.888184, 27.08063, 307.274, 11.35406,6.594522,1,1,False,False,122
135,-1.696183,-0.04853058,1015.576,-1,1.071289, 4.341309, -1.358398, -1.419375, -477.0385, -58.02094,6.594522,2,1,False,False,122
151,3.217294,8.130772,1015.275,-1,1.418457, 2.893555, -0.9013672, -9.169374, -464.226, -60.48969,6.594522,3,1,False,False,122
231,13.49809,23.77889,1014.701,-1,0.4980469, -0.3276367, -1.308594, -23.8725, -383.0853, -44.61469,6.594522,4,1,False,False,122
299,22.11296,30.72783,1014.447,45.08969,0.1235352, -0.6625977, -1.256348, -31.27875, -288.726, -49.17719,13.49809,0,2,False,False,122
365,31.74907,41.38519,1014.055,-1,0.3227539, -0.6088867, -0.9301758, -25.63812, -201.8197, -52.19281,22.11296,0,2,False,False,122
432,41.58389,51.41869,1013.688,-1,0.3266602, -0.2412109, -0.6665039, -8.372499, -125.0072, -47.91156,31.74907,0,2,False,False,122
500,49.10931,56.63473,1013.497,44.60672,0.4155273, -0.7094727, -0.7416992, -10.9975, -81.74156, -53.11469,41.58389,0,2,False,False,122
570,55.41072,61.71214,1013.311,-1,0.6157227, -0.5620117, -0.5966797, -8.091249, -98.11656, -46.95844,49.10931,0,2,False,False,122
745,65.56669,75.72266,1012.798,44.21484,0.2939453, -0.4746094, -0.5883789, -0.2474999, -155.4447, -19.20844,55.41072,0,2,False,False,122
817,72.79347,80.02026,1012.64,-1,0.3203125, -0.3896484, -0.5107422, 0.3775001, -149.4447, -20.64594,65.56669,0,2,False,True,122
888,78.59898,84.4045,1012.48,-1,0.3007813, -0.4316406, -0.3676758, 2.924375, -133.2259, -22.45844,72.79347,0,2,False,True,122
957,80.81291,83.02685,1012.53,-1,0.2470703, -0.3706055, -0.5917969, 7.049375, -121.0697, -23.67719,78.59898,0,2,False,True,122
1026,85.53732,90.26172,1012.266,-1,-0.203125, -3.76123, -1.70752, 20.29938, -140.8509, -56.06781,80.81291,0,2,False,True,122
1097,89.24252,92.94772,1012.167,-1,0.199707, -0.5834961, -1.371094, -2.31, -117.0697, -17.86469,85.53732,0,2,False,True,122
1178,94.34431,99.44611,1011.929,-1,0.5390625, -0.515625, -0.1777344, 18.03375, -94.10094, -16.13031,89.24252,0,2,False,True,122
1256,99.87148,105.3986,1011.711,43.88216,0.3217773, -0.3808594, -0.2231445, 9.690001, -142.9134, -17.50531,94.34431,0,2,False,True,122
1335,104.238,108.6045,1011.594,43.87761,0.2333984, -0.3125, -0.1518555, 6.674375, -186.1791, -14.00531,99.87148,0,2,False,True,122
1411,110.3203,116.4026,1011.309,43.88216,0.2163086, -0.2734375, -0.2792969, 5.455625, -198.3822, -9.192812,104.238,0,2,False,True,122
1488,113.0148,115.7094,1011.334,-1,0.1337891, -0.2578125, -0.2011719, 4.90875, -187.7884, -9.458437,110.3203,0,2,False,True,122
1566,116.8098,120.6049,1011.156,-1,0.1567383, -0.2749023, -0.2290039, 5.299375, -181.3666, -10.31781,113.0148,0,2,False,True,122
1761,121.2634,125.7169,1010.969,43.90495,0.1376953, -0.1586914, -0.1533203, 12.15875, -139.8197, -14.63031,116.8098,0,2,False,True,122
1841,126.9906,132.7178,1010.713,-1,0.08837891, -0.1645508, -0.1962891, 12.51813, -124.0384, -13.72406,121.2634,0,2,False,True,122
1920,130.1662,133.3417,1010.69,43.94596,0.08056641, -0.1225586, -0.1484375, 15.26813, -118.8509, -16.44281,126.9906,0,2,False,True,122
2000,133.0753,135.9844,1010.593,43.94596,0.06542969, -0.1040039, -0.1513672, 17.33063, -106.7259, -19.55219,130.1662,0,2,False,True,122
2081,135.2836,137.492,1010.538,-1,0.06494141, -0.08496094, -0.1362305, 19.09625, -90.72594, -24.23969,133.0753,0,2,False,True,122
2162,137.4059,139.5282,1010.464,43.95508,0.05908203, -0.07568359, -0.1464844, 19.815, -70.19469, -27.03656,135.2836,0,2,False,True,122
2247,139.2208,141.0358,1010.408,-1,0.0390625, -0.06396484, -0.1210938, 21.76813, -59.61656, -29.16156,137.4059,0,2,False,True,122
2331,140.0893,140.9578,1010.411,43.96875,0.02978516, -0.04052734, -0.1171875, 23.76813, -48.56969, -32.20844,139.2208,0,2,False,True,122
2417,140.3459,140.6026,1010.424,43.95052,0.01171875, -0.02587891, -0.105957, 25.47125, -36.10094, -34.09906,140.0893,0,2,False,True,122
2552,142.3068,144.2676,1010.29,43.93229,-0.004882813, -0.01660156, -0.08837891, 27.84625, -24.77281, -35.23969,140.3459,0,2,False,True,122
2617,143.2872,144.2676,1010.29,-1,-0.02050781, -0.008789063, -0.09912109, 28.34625, -17.35094, -35.42719,142.3068,0,2,False,True,122
2681,144.8908,146.4944,1010.209,-1,-0.01464844, -0.01074219, -0.07519531, 28.8775, -12.96031, -35.61469,143.2872,0,2,False,True,122
2856,145.7316,146.5724,1010.206,-1,-0.02587891, 0.01367188, -0.1962891, 29.83063, -12.17906, -38.55219,144.8908,0,2,False,True,122
2922,147.3087,148.8858,1010.122,43.93229,-0.0625, 0.008789063, -0.1298828, 29.11188, -16.14781, -38.94281,145.7316,0,2,False,True,122
2989,146.1348,144.9608,1010.265,-1,-0.105957, 0.04736328, -0.05126953, 28.2525, -18.16344, -42.16156,147.3087,0,2,False,True,122
3056,146.0287,145.9226,1010.23,43.98243,-0.07568359, 0.0078125, -0.06933594, 26.42438, -17.24156, -46.64594,147.3087,1,2,False,True,122
3127,146.0493,146.0699,1010.224,44.01888,-0.1220703, 0.006835938, -0.1308594, 26.72125, -10.53844, -46.67719,147.3087,2,2,False,True,122
3198,146.5448,147.0403,1010.189,-1,-0.144043, 0.01025391, -0.1523438, 29.89313, -0.8353124, -42.11469,147.3087,3,2,False,True,122
3267,146.2553,145.9659,1010.228,-1,-0.105957, -0.01171875, -0.1816406, 37.51812, 18.47719, -32.34906,147.3087,4,2,False,True,122
3338,146.3792,146.5031,1010.209,-1,0.00390625, 0.002929688, -0.1103516, 46.67437, 40.08656, -23.16156,147.3087,5,3,True,True,122
3412,145.7653,145.1514,1010.258,44.0599,-0.1303711, 0.001464844, -0.2558594, 50.76812, 63.47719, -18.11469,147.3087,5,3,True,True,122
3483,144.1717,142.5781,1010.352,44.07357,-0.140625, 0.01757813, -0.2900391, 58.14312, 87.32094, -6.895937,147.3087,5,3,True,True,122
3557,141.9886,139.8054,1010.453,44.10091,-0.1459961, -0.009765625, -0.3774414, 64.08063, 105.7272, 5.760313,147.3087,5,3,True,True,122
3633,139.645,137.3014,1010.545,44.11002,0.04882813, -0.1030273, -0.06738281, 69.90875, 40.94594, 23.68219,147.3087,5,3,True,True,122
3823,139.1447,138.6444,1010.496,44.10091,-0.08398438, 0.006347656, -0.4951172, 54.70562, 155.5866, 62.77594,147.3087,5,3,True,True,122
3897,137.3956,135.6465,1010.605,44.07357,0.01513672, -0.007324219, -0.6132813, 40.815, 145.7584, 75.51031,147.3087,5,3,True,True,122
3973,137.1968,136.9981,1010.556,44.04623,-0.04150391, -0.009277344, -0.574707, 22.78375, 135.0553, 80.88531,147.3087,5,3,True,True,122
4047,135.6288,134.0609,1010.663,-1,0.07470703, -0.01855469, -0.5517578, 9.705626, 106.0866, 72.57281,147.3087,5,3,True,True,122
4122,132.943,130.2571,1010.802,44.028,0.1918945, -0.07177734, -0.4833984, 2.28375, 47.14906, 60.18219,147.3087,5,3,True,True,122
4199,131.2535,129.564,1010.828,-1,0.1323242, -0.07373047, -0.496582, 3.59625, -35.91344, 40.82281,147.3087,5,3,True,True,122
4287,129.0397,126.826,1010.928,43.97331,0.02636719, -0.1030273, -0.625, 13.86188, -147.5072, 20.88531,147.3087,5,3,True,True,122
4364,126.6072,124.1746,1011.025,-1,-0.1484375, -0.1142578, -0.668457, 22.78375, -240.9916, -3.583437,147.3087,5,3,True,True,122
4447,123.0082,119.4091,1011.199,43.93229,-0.3554688, -0.06347656, -0.7832031, 23.2525, -300.6166, -46.25531,147.3087,5,3,True,True,122
4527,122.0145,121.0208,1011.14,43.89128,-0.5078125, -0.09667969, -0.5712891, 3.97125, -304.6791, -79.63031,147.3087,5,3,True,True,122
4609,119.3298,116.6452,1011.3,-1,-0.5834961, -0.1196289, -0.05322266, -22.45062, -272.6947, -81.69281,147.3087,5,3,True,True,122
4692,114.8163,110.3027,1011.532,43.73632,-0.6191406, -0.07617188, -0.05419922, -36.06, -252.0853, -68.81781,147.3087,5,3,True,True,122
4892,111.4764,108.1366,1011.612,43.55402,-0.3291016, -0.1577148, -0.1113281, -85.9975, -186.4447, -44.89594,147.3087,5,3,True,True,122
4974,107.3155,103.1545,1011.794,-1,-0.05322266, -0.5126953, 0.005859375, -102.0287, -156.3822, -19.03656,147.3087,5,3,True,True,122
5062,103.0905,98.86559,1011.951,43.40818,-0.6704102, -0.5620117, -0.6293945, -101.3256, -133.4447, 4.416563,147.3087,5,3,True,True,122
5145,98.2574,93.42426,1012.15,-1,-1.405762, -0.5361328, -0.1469727, -91.685, -179.8509, 36.61969,147.3087,5,3,True,True,122
5278,98.19759,98.13776,1011.977,43.23497,-1.187012, -1.746094, -0.7319336, -303.3881, 315.8365, 336.6666,147.3087,5,3,True,True,122
5344,98.36263,98.52766,1011.963,43.17117,-2.236328, -0.01171875, -2.861816, -409.1225, 469.6803, 236.9322,147.3087,5,3,True,True,122
5410,96.78156,95.20049,1012.085,-1,0.01220703, 1.223145, -3.933105, -327.6694, 307.9928, 110.1041,147.3087,5,3,True,True,122
5475,94.05884,91.33612,1012.226,-1,0.3320313, 0.8178711, -2.000977, -159.4975, 58.16469, 12.36969,147.3087,5,3,True,True,122
5540,88.94141,83.82398,1012.501,-1,0.01708984, 0.5004883, -1.285156, -43.95063, -10.38219, -57.92719,147.3087,5,3,True,True,122
5609,87.49609,86.05077,1012.42,43.08456,0.02636719, -0.1137695, -1.497559, 80.86188, 259.1959, -24.89594,147.3087,5,3,True,True,122
5675,83.8968,80.29752,1012.63,-1,0.5844727, 0.3925781, -1.614258, 184.4869, 196.6803, 68.43219,147.3087,5,3,True,True,122
5744,81.25237,78.60794,1012.692,43.09367,0.2680664, -0.1987305, -2.428711, 188.0806, -275.6166, 57.36969,147.3087,5,3,True,True,122
5924,78.43987,75.62735,1012.801,-1,-1.132324, -0.2070313, -0.6728516, -83.70062, -84.88219, -62.59906,147.3087,5,3,True,True,122
5991,76.63071,74.82155,1012.831,-1,-0.9257813, -0.1264648, -0.9975586, -29.04437, 116.1647, 16.10406,147.3087,5,3,True,True,122
6061,75.1846,73.73849,1012.87,-1,-0.6206055, 0.02050781, -1.237793, -79.27875, 322.6959, 70.58844,147.3087,5,3,True,True,122
6131,74.46155,73.73849,1012.87,-1,-0.2285156, 0.1494141, -1.257813, -71.1225, 346.5553, 47.86969,147.3087,5,3,True,True,122
6200,72.51441,70.56728,1012.987,-1,0.05175781, 0.03808594, -0.8999023, -22.63812, 221.4928, 39.61969,147.3087,5,3,True,True,122
6271,68.96315,65.41189,1013.175,-1,0.2446289, 0.02832031, -0.8183594, 29.6275, 26.57094, 44.93219,147.3087,5,3,True,True,122
6364,67.62941,66.29567,1013.143,43.1894,0.1367188, 0.03222656, -1.01416, 86.14313, -195.3197, -7.145937,147.3087,5,3,True,True,122
6439,69.60522,71.58102,1012.95,43.20307,-0.2207031, -0.02441406, -1.040527, 55.34625, -245.7884, -50.02094,147.3087,5,3,True,True,122
6516,68.9382,68.27118,1013.071,-1,-0.3647461, 0.03125, -0.8388672, -22.77875, -141.4603, -42.16156,147.3087,5,3,True,True,122
6589,67.66026,66.38231,1013.14,43.276,-0.5253906, -0.0859375, -0.7177734, -44.96625, -16.14781, -12.09906,147.3087,5,3,True,True,122
6666,69.19174,70.72324,1012.981,-1,-0.5307617, -0.1547852, -0.9501953, -46.10688, 85.44594, 18.55719,147.3087,5,3,True,True,122
6742,67.04188,64.89201,1013.194,-1,-0.3413086, 0.004882813, -0.9296875, -58.70063, 111.5397, 27.65094,147.3087,5,3,True,True,122
6935,66.74242,66.44296,1013.138,-1,-0.01318359, 0.04980469, -0.9716797, 16.23688, -35.24156, -23.19281,147.3087,5,3,True,True,122
7011,65.70891,64.6754,1013.202,-1,-0.08496094, 0.04492188, -0.9492188, 20.11188, -100.1791, -50.48969,147.3087,5,3,True,True,122
7088,62.62746,59.54601,1013.391,-1,-0.2275391, 0.01904297, -0.8720703, 14.89313, -134.6166, -74.42719,147.3087,5,3,True,True,122
7165,61.08673,59.54601,1013.391,-1,-0.4160156, -0.004882813, -0.8442383, -0.1693749, -132.9916, -82.45844,147.3087,5,3,True,True,122
7242,58.31487,55.543,1013.537,-1,-0.5136719, -0.01025391, -0.7563477, -15.01312, -89.91344, -62.38031,147.3087,5,3,True,True,122
7321,55.64658,52.97831,1013.631,-1,-0.5063477, -0.02880859, -0.8242188, -15.82562, 6.117813, -28.84906,147.3087,5,3,True,True,122
7402,54.47707,53.30756,1013.619,-1,-0.3803711, -0.03662109, -1.00293, -9.809999, 116.7116, -9.474062,147.3087,5,3,True,True,122
7482,54.91473,55.35238,1013.544,-1,-0.1928711, 0.0, -1.083008, -14.15375, 175.0553, -21.34906,147.3087,5,3,True,True,122
7572,54.8303,54.74586,1013.566,-1,-0.01708984, 0.01855469, -1.008301, -9.341249, 57.85219, -38.75531,147.3087,5,3,True,True,122
7655,53.6357,52.4411,1013.651,-1,-0.04980469, 0.01074219, -0.9228516, -5.481875, -81.89781, -60.97406,147.3087,5,3,True,True,122
7738,53.47163,53.30756,1013.619,-1,-0.2524414, 0.01611328, -0.8530273, -11.66937, -172.5697, -74.64594,147.3087,5,3,True,True,122
7820,51.05884,48.64605,1013.79,-1,-0.4677734, 0.005371094, -0.8378906, -22.73187, -170.7572, -62.33344,147.3087,5,3,True,True,122
8062,48.73472,46.4106,1013.871,-1,-0.3813477, 0.02783203, -1.052734, -3.575625, 198.4928, -6.833437,147.3087,5,3,True,True,122
8126,47.57266,46.4106,1013.871,-1,-0.2050781, 0.02490234, -1.148926, 11.2525, 200.7897, -7.458437,147.3087,5,3,True,True,122
8193,47.83209,48.09152,1013.81,-1,-0.01220703, 0.01513672, -1.200195, 17.47125, 103.9303, -18.95844,147.3087,5,3,True,True,122
8258,46.34154,44.85099,1013.929,-1,-0.02197266, -0.006835938, -1.104004, 13.61188, -15.03844, -38.27094,147.3087,5,3,True,True,122
8322,44.27926,42.21698,1014.025,-1,-0.1782227, -0.02246094, -1.099609, 2.78375, -117.4134, -62.45844,147.3087,5,3,True,True,122
8391,43.48206,42.68486,1014.008,43.17572,-0.4169922, -0.04150391, -1.063477, -9.559999, -139.0384, -63.41156,147.3087,5,3,True,True,122
8457,41.86176,40.24147,1014.097,-1,-0.503418, -0.05761719, -0.9316406, -24.91937, -76.31969, -43.11469,147.3087,5,3,True,True,122
8525,39.52666,37.19156,1014.209,43.08912,-0.5009766, -0.06591797, -0.840332, -30.66937, 28.57094, -21.95844,147.3087,5,3,True,True,122
8592,39.88406,40.24147,1014.098,-1,-0.3818359, -0.06640625, -0.8608398, -28.185, 106.5709, -10.86469,147.3087,5,3,True,True,122
8661,37.59338,35.3027,1014.279,-1,-0.2260742, -0.04052734, -0.9682617, -22.71625, 143.8678, -11.95844,147.3087,5,3,True,True,122
8731,37.2625,36.93163,1014.219,-1,0.006835938, -0.01513672, -1.01123, -27.13812, 108.1803, -33.47406,147.3087,5,3,True,True,122
8803,37.19238,37.12224,1014.212,-1,0.04101563, -0.004394531, -0.9799805, -38.20063, 9.742813, -61.89594,147.3087,5,3,True,True,122
8988,35.70167,34.21096,1014.319,-1,-0.347168, 0.03076172, -0.8930664, -35.09125, -184.6009, -93.31781,147.3087,5,3,True,True,122
9059,35.19892,34.69618,1014.301,-1,-0.6020508, 0.01416016, -0.9375, -35.63813, -125.5228, -91.81781,147.3087,5,3,True,True,122
9128,34.02911,32.8593,1014.368,-1,-0.6171875, -0.02587891, -0.9077148, -28.96625, 14.86781, -78.08344,147.3087,5,3,True,True,122
9199,31.68531,29.34151,1014.497,-1,-0.4130859, -0.04345703, -0.8818359, -12.38812, 128.1647, -69.83344,147.3087,5,3,True,True,122
9273,31.18924,30.69317,1014.448,-1,-0.2260742, -0.04199219, -0.972168, 0.6431251, 171.2897, -62.36469,147.3087,5,3,True,True,122
9348,30.33469,29.48014,1014.492,-1,0.046875, -0.006347656, -1.023926, -8.138124, 107.7272, -69.30219,147.3087,5,3,True,True,122
9428,28.89367,27.45264,1014.567,42.77915,0.07958984, 0.02392578, -0.9355469, -31.91937, -20.42906, -87.83344,147.3087,5,3,True,True,122
9501,28.74501,28.59636,1014.525,-1,-0.07470703, 0.04882813, -1.026367, -48.7475, -127.3509, -94.72406,147.3087,5,3,True,True,122
9582,28.36743,27.98984,1014.547,42.77003,-0.3144531, 0.03710938, -0.9848633, -54.85688, -182.5853, -90.88031,147.3087,5,3,True,True,122
9658,27.00026,25.63309,1014.633,-1,-0.5004883, 0.02832031, -0.8632813, -50.16938, -130.6166, -84.58344,147.3087,5,3,True,True,122
9737,26.51596,26.03166,1014.619,-1,-0.5361328, -0.01708984, -0.8061523, -40.21625, -24.66344, -80.78656,147.3087,5,3,True,True,122
9814,26.4471,26.37824,1014.606,-1,-0.4453125, -0.03710938, -0.8007813, -24.29437, 100.4616, -77.84906,147.3087,5,3,True,True,122
10007,24.99169,23.53628,1014.71,42.81562,-0.09375, 0.04394531, -0.9545898, 14.04938, 98.93031, -73.23969,147.3087,5,3,True,True,122
10087,23.11161,21.23152,1014.795,-1,-0.08251953, 0.05078125, -0.9487305, 10.1275, -20.08531, -79.23969,147.3087,5,3,True,True,122
10164,21.29645,19.48129,1014.859,-1,-0.2133789, 0.008300781, -1.043457, -1.356875, -124.9759, -87.89594,147.3087,5,3,True,True,122
10245,20.25023,19.20402,1014.869,-1,-0.3701172, -0.04150391, -0.9277344, -20.04437, -136.0072, -89.86469,147.3087,5,3,True,True,122
10332,18.99065,17.73106,1014.923,42.79739,-0.4707031, -0.08349609, -0.8896484, -37.76313, -29.24156, -82.50531,147.3087,5,3,True,True,122
10415,17.8843,16.77796,1014.958,-1,-0.4140625, -0.1181641, -0.8691406, -47.60688, 92.77406, -69.36469,147.3087,5,3,True,True,122
10499,17.877,17.86969,1014.918,-1,-0.2612305, -0.07666016, -0.9033203, -53.66938, 136.2584, -67.19281,147.3087,5,3,True,True,122
10634,17.23217,16.58734,1014.965,-1,-0.1293945, 0.06494141, -0.921875, -51.52875, -28.38219, -73.23969,147.3087,5,3,True,True,122
10699,17.1437,17.05522,1014.948,42.68343,-0.1855469, 0.1083984, -0.9604492, -47.65375, -119.4759, -75.08344,147.3087,5,3,True,True,122
10773,16.76154,16.37939,1014.973,42.66975,-0.3613281, 0.1293945, -0.9511719, -31.77875, -169.8978, -78.09906,147.3087,5,3,True,True,122
10838,14.98486,13.20818,1015.089,42.66063,-0.4555664, 0.09765625, -0.8457031, -16.51312, -126.4759, -81.69281,147.3087,5,3,True,True,122
10904,15.64747,16.31007,1014.975,-1,-0.4716797, 0.02587891, -0.7978516, -1.06, -17.52281, -86.02094,147.3087,5,3,True,True,122
11089,14.60111,13.55476,1015.076,42.58313,-0.1850586, -0.1245117, -0.8925781, 7.580625, 156.1178, -72.13031,147.3087,5,3,True,True,122
11156,11.71252,8.823933,1015.25,-1,-0.1000977, -0.1152344, -0.9125977, -9.075624, 70.86781, -74.33344,147.3087,5,3,True,True,122
11223,10.54549,9.378464,1015.23,-1,-0.121582, -0.06689453, -0.9995117, -28.52875, -46.22594, -79.47406,147.3087,5,3,True,True,122
11290,9.078197,7.610901,1015.294,-1,-0.2978516, -0.0004882813, -1.019531, -47.45063, -163.3978, -80.27094,147.3087,5,3,True,True,122
11358,7.738033,6.397869,1015.339,-1,-0.4736328, 0.03271484, -0.9746094, -56.435, -172.6478, -70.05219,147.3087,5,4,True,True,122
11429,7.206583,6.675133,1015.329,42.52387,-0.5405273, 0.03515625, -0.8745117, -49.7475, -70.58531, -60.19281,147.3087,5,4,True,True,122
11500,7.781316,8.356049,1015.267,42.50564,-0.5102539, 0.03271484, -0.8129883, -29.185, 72.16469, -53.98969,147.3087,5,4,True,True,122
11574,7.167572,6.553829,1015.333,42.4874,-0.4121094, 0.004882813, -0.8588867, -3.513125, 172.7741, -53.41156,147.3087,5,4,True,True,122
11645,7.25927,7.350967,1015.304,-1,-0.2182617, -0.01171875, -0.9003906, 17.565, 192.8053, -49.53656,147.3087,5,4,True,True,122
11719,5.416254,3.573238,1015.442,-1,-0.04345703, -0.02001953, -0.8647461, 28.70563, 117.0241, -45.28656,147.3087,5,4,True,True,122
11794,4.330119,3.243984,1015.455,-1,0.004882813, -0.02978516, -0.8588867, 28.1275, -6.054062, -49.83344,147.3087,5,4,True,True,122
11869,2.608678,0.8872375,1015.541,-1,-0.1484375, -0.02832031, -0.8896484, 7.22125, -146.0228, -64.38031,147.3087,5,4,True,True,122
12076,1.747958,0.8872375,1015.541,-1,-0.2124023, 0.1411133, -0.2524414, -2.013125, -504.0072, -102.5209,147.3087,5,4,True,True,122
12151,2.210042,2.672127,1015.476,-1,-1.344238, -0.5786133, 1.449219, -25.56, -504.0072, -89.23969,147.3087,5,4,True,True,122
12226,2.103169,1.996296,1015.501,-1,0.09619141, -0.04638672, 0.2973633, 71.39313, -452.7572, -61.14594,147.3087,5,4,True,True,122
12305,3.193448,4.283726,1015.416,42.25946,0.7451172, -0.01660156, 1.625977, 76.15875, -323.1166, -134.9741,147.3087,5,4,True,True,122
12380,1.754414,0.3153801,1015.562,-1,1.849121, 0.1953125, -0.9355469, -81.10687, -504.0072, -37.34906,147.3087,5,4,True,True,122
12459,1.910013,2.065613,1015.498,-1,0.300293, 0.1206055, -1.100586, -4.3725, -364.1166, 47.43219,147.3087,5,4,True,True,122
12539,1.277322,0.6446304,1015.55,42.28225,0.5356445, -0.1420898, -0.9370117, -24.4975, -308.9291, 16.27594,147.3087,5,4,True,True,122
12619,0.2504849,-0.7763519,1015.602,42.27769,-0.01025391, -0.07763672, -0.878418, -33.77875, -359.5228, 17.94781,147.3087,5,4,True,True,122
12701,-1.138048,-2.526581,1015.666,-1,-0.3041992, -0.1196289, -1.700684, -6.9975, -277.4291, 27.38531,147.3087,5,4,True,True,122
12781,-0.7232579,-0.3084679,1015.585,-1,-0.8134766, 0.03222656, -0.6899414, 16.39313, -89.69469, 5.807188,147.3087,5,4,True,True,122
12862,0.6018606,1.926979,1015.503,-1,-0.5820313, -0.01220703, -0.7543945, -4.356875, 39.89906, 0.7759376,147.3087,5,4,True,True,122
12945,1.099795,1.597729,1015.515,-1,-0.4414063, 0.03076172, -0.9047852, -4.09125, 92.60219, 3.963438,147.3087,5,4,True,True,122
13140,1.418077,1.736359,1015.51,-1,-0.3867188, -0.01220703, -0.8857422, -0.2787499, 2.836563, -0.1928124,147.3087,5,4,True,True,122
13225,0.7021013,-0.01387405,1015.574,42.18651,-0.3969727, -0.02001953, -0.8891602, 0.002500057, 0.07093763, 0.1509376,147.3087,5,4,True,True,122
13361,-0.6609695,-2.02404,1015.648,42.16372,-0.4003906, -0.01025391, -0.8813477, -0.01312494, -0.3978124, 0.02593756,147.3087,5,4,True,True,122
13426,-1.481139,-2.301308,1015.658,-1,-0.3920898, -0.01318359, -0.8823242, -0.05999994, 0.1021876, 0.07281256,147.3087,5,4,True,True,122
13491,-0.7475063,-0.01387405,1015.574,-1,-0.4008789, -0.01806641, -0.8793945, -0.1849999, 2.258438, 0.01031256,147.3087,5,4,True,True,122
13555,-0.07743129,0.5926437,1015.552,-1,-0.3886719, -0.01513672, -0.8857422, -0.04437494, 0.1959376, -0.005312443,147.3087,5,4,True,True,122
13622,0.2576062,0.5926437,1015.552,-1,-0.3964844, -0.01123047, -0.8867188, -0.2006249, 1.742813, 0.1353126,147.3087,5,4,True,True,122
13688,0.9969825,1.736359,1015.51,-1,-0.3930664, -0.01904297, -0.878418, -0.02874994, -0.1165624, -0.06781244,147.3087,5,4,True,True,122
13756,0.2229557,-0.5510712,1015.594,42.17284,-0.4448242, 0.005859375, -0.8793945, -0.1224999, 0.4771876, -1.255312,147.3087,5,4,True,True,122
13826,-0.9005423,-2.02404,1015.648,42.16827,-0.4321289, -0.02783203, -0.8818359, -0.4974999, -1.585312, -5.364687,147.3087,5,4,True,True,122
13902,-0.3185744,0.2633934,1015.564,-1,-0.4086914, -0.03369141, -0.8818359, 0.4243751, 6.539688, 3.057188,147.3087,5,4,True,True,122
13968,-0.4608181,-0.6030617,1015.596,-1,-0.3710938, -0.02490234, -0.8881836, 0.03375006, 0.2740626, -0.2240624,147.3087,5,4,True,True,122
14151,-0.843862,-1.226906,1015.619,42.15004,-0.3745117, -0.02050781, -0.8886719, 0.01812506, -0.1946874, 0.07281256,147.3087,5,4,True,True,122
14222,-0.4895198,-0.1351776,1015.579,-1,-0.3774414, -0.01513672, -0.8896484, -0.02874994, 0.1803126, 0.1040626,147.3087,5,4,True,True,122
14293,-0.9188627,-1.348206,1015.623,-1,-0.3828125, -0.01757813, -0.8867188, 0.002500057, -0.1634374, 0.05718756,147.3087,5,4,True,True,122
14367,-2.615166,-4.31147,1015.732,42.08622,-0.3823242, -0.01513672, -0.8886719, 0.01812506, -0.1165624, 0.1196876,147.3087,5,4,True,True,122
14442,-1.903706,-1.192245,1015.618,-1,-0.3852539, -0.01708984, -0.887207, -0.02874994, -0.08531237, 0.08843756,147.3087,5,4,True,True,122
14518,-0.4389193,1.025867,1015.536,42.04974,-0.3842773, -0.015625, -0.8862305, -0.02874994, -0.1321874, 0.1353126,147.3087,5,4,True,True,122
14593,-1.456757,-2.474594,1015.664,-1,-0.3842773, -0.01660156, -0.8862305, 0.002500057, -0.02281237, 0.05718756,147.3087,5,4,True,True,122
14671,-0.4147282,0.6273003,1015.551,42.0315,-0.3842773, -0.01660156, -0.8837891, -0.04437494, -0.1478124, 0.07281256,147.3087,5,4,True,True,122
14752,0.8167772,2.048283,1015.498,42.02238,-0.3833008, -0.01513672, -0.8833008, 0.01812506, -0.05406237, 0.07281256,147.3087,5,4,True,True,122
14828,-0.1530776,-1.122932,1015.615,-1,-0.3837891, -0.01318359, -0.8828125, -0.02874994, -0.05406237, 0.08843756,147.3087,5,4,True,True,122
14907,-2.353577,-4.554077,1015.741,42.01327,-0.3818359, -0.01757813, -0.8857422, -0.04437494, -0.06968737, 0.07281256,147.3087,5,4,True,True,122
14983,-1.902878,-1.452179,1015.627,-1,-0.3842773, -0.01464844, -0.8857422, -0.07562494, -0.08531237, 0.1040626,147.3087,5,4,True,True,122
15172,-1.842156,-1.781433,1015.639,-1,-0.3837891, -0.01611328, -0.8852539, -0.05999994, -0.1946874, 0.07281256,147.3087,5,4,True,True,122
15253,-1.681828,-1.5215,1015.629,-1,-0.3833008, -0.01660156, -0.8847656, 0.03375006, -0.08531237, 0.05718756,147.3087,5,4,True,True,122
15333,-1.029804,-0.3777809,1015.587,41.98135,-0.3818359, -0.01708984, -0.8862305, -0.01312494, -0.1634374, 0.1196876,147.3087,5,4,True,True,122
15414,-1.570246,-2.110687,1015.651,41.97223,-0.3828125, -0.01611328, -0.8862305, 0.01812506, -0.05406237, 0.1040626,147.3087,5,4,True,True,122
15498,-1.138638,-0.7070313,1015.6,41.96767,-0.3828125, -0.01416016, -0.8837891, -0.01312494, -0.1009374, 0.1040626,147.3087,5,4,True,True,122
15579,-0.3509774,0.4366837,1015.557,-1,-0.3823242, -0.01708984, -0.8828125, -0.02874994, -0.1946874, 0.1353126,147.3087,5,4,True,True,122
15664,-1.672723,-2.994469,1015.684,-1,-0.3818359, -0.015625, -0.8837891, 0.06500006, -0.1478124, 0.1040626,147.3087,5,4,True,True,122
15796,-1.21587,-0.7590179,1015.602,-1,-0.3828125, -0.01660156, -0.8847656, 0.01812506, -0.2103124, 0.1196876,147.3087,5,4,True,True,122
15859,-1.862562,-2.509254,1015.666,41.93576,-0.3808594, -0.01708984, -0.8833008, -0.02874994, -0.2571874, 0.1040626,147.3087,5,4,True,True,122
15924,-2.359199,-2.855835,1015.678,-1,-0.3833008, -0.01611328, -0.8837891, 0.03375006, -0.1321874, 0.1353126,147.3087,5,4,True,True,122
15988,-2.468883,-2.578568,1015.668,-1,-0.3828125, -0.01708984, -0.8852539, 0.002500057, -0.2103124, 0.08843756,147.3087,5,4,True,True,122
16054,-2.662359,-2.855835,1015.678,41.92208,-0.3808594, -0.015625, -0.8833008, 0.002500057, -0.2571874, 0.1040626,147.3087,5,4,True,True,122
16241,-2.51649,-2.370621,1015.661,-1,-0.3828125, -0.01611328, -0.8818359, 0.04937506, -0.2571874, 0.08843756,147.3087,5,4,True,True,122
16309,-3.725904,-4.935318,1015.755,-1,-0.3823242, -0.01660156, -0.8818359, -0.02874994, -0.1790624, 0.1196876,147.3087,5,4,True,True,122
16376,-4.191978,-4.658051,1015.745,-1,-0.3813477, -0.01611328, -0.8833008, -0.02874994, -0.1634374, 0.05718756,147.3087,5,4,True,True,122
16446,-4.017784,-3.84359,1015.715,-1,-0.3823242, -0.015625, -0.8823242, 0.002500057, -0.1946874, 0.1353126,147.3087,5,4,True,True,122
16515,-2.215112,-0.4124413,1015.589,-1,-0.3813477, -0.01757813, -0.8842773, 0.002500057, -0.2103124, 0.1040626,147.3087,5,4,True,True,122
16586,-2.188893,-2.162674,1015.653,-1,-0.3808594, -0.01708984, -0.8842773, -0.01312494, -0.2415624, 0.07281256,147.3087,5,4,True,True,122
16657,-2.609007,-3.029121,1015.685,-1,-0.3818359, -0.015625, -0.8852539, 0.002500057, -0.2415624, 0.1040626,147.3087,5,4,True,True,122
16726,-2.143234,-1.67746,1015.635,-1,-0.3823242, -0.01806641, -0.8833008, 0.002500057, -0.1634374, 0.1509376,147.3087,5,4,True,True,122
16799,-1.477119,-0.8110046,1015.603,41.84913,-0.3818359, -0.01660156, -0.8833008, 0.03375006, -0.1634374, 0.07281256,147.3087,5,4,True,True,122
16870,-2.010517,-2.543915,1015.667,-1,-0.3813477, -0.01513672, -0.8818359, 0.01812506, -0.1634374, 0.1040626,147.3087,5,4,True,True,122
16951,-2.719103,-3.427689,1015.7,41.84001,-0.3803711, -0.01611328, -0.8833008, -0.04437494, -0.1946874, 0.1040626,147.3087,5,4,True,True,122
17026,-1.929681,-1.140259,1015.615,-1,-0.3803711, -0.01611328, -0.8837891, 0.03375006, -0.1165624, 0.1353126,147.3087,5,4,True,True,122
17217,-1.72559,-1.5215,1015.63,-1,-0.3813477, -0.01611328, -0.8842773, 0.01812506, -0.1634374, 0.08843756,147.3087,5,4,True,True,122
17295,-1.493578,-1.261566,1015.62,41.79898,-0.3803711, -0.01513672, -0.8813477, 0.04937506, -0.2571874, 0.08843756,147.3087,5,4,True,True,122
17372,-2.252687,-3.011795,1015.684,-1,-0.3803711, -0.015625, -0.8837891, -0.04437494, -0.2103124, 0.04156256,147.3087,5,4,True,True,122
17450,-2.086377,-1.920067,1015.644,-1,-0.3798828, -0.01660156, -0.8833008, -0.02874994, -0.2415624, 0.1353126,147.3087,5,4,True,True,122
17547,-2.037878,-1.98938,1015.647,-1,-0.3808594, -0.01660156, -0.8852539, -0.02874994, -0.1946874, 0.05718756,147.3087,5,4,True,True,122
17626,-2.481513,-2.925148,1015.681,-1,-0.3808594, -0.01660156, -0.8837891, 0.01812506, -0.1946874, 0.08843756,147.3087,5,4,True,True,122
17707,-3.162551,-3.84359,1015.715,-1,-0.3808594, -0.015625, -0.8847656, 0.002500057, -0.2259374, 0.08843756,147.3087,5,4,True,True,122
17787,-1.388929,0.3846931,1015.559,-1,-0.3808594, -0.01708984, -0.8828125, 0.01812506, -0.1790624, 0.1040626,147.3087,5,4,True,True,122
17868,-1.784465,-2.18,1015.653,-1,-0.3818359, -0.015625, -0.8857422, 0.002500057, -0.1321874, 0.05718756,147.3087,5,4,True,True,122
17952,-2.450117,-3.115768,1015.688,-1,-0.3803711, -0.01757813, -0.8842773, 0.002500057, -0.2728124, 0.08843756,147.3087,5,4,True,True,122
18037,-2.375712,-2.301308,1015.658,41.67587,-0.3803711, -0.01513672, -0.887207, -0.01312494, -0.2259374, 0.08843756,147.3087,5,4,True,True,122
18118,-1.489387,-0.6030617,1015.596,-1,-0.3793945, -0.01611328, -0.8847656, 0.01812506, -0.1946874, 0.08843756,147.3087,5,4,True,True,122
18312,-1.349483,-1.209579,1015.618,41.63939,-0.3798828, -0.01513672, -0.8852539, 0.06500006, -0.1634374, 0.1040626,147.3087,5,4,True,True,122
18447,-0.6036967,0.1420898,1015.568,-1,-0.3798828, -0.01660156, -0.8828125, 0.01812506, -0.1946874, 0.08843756,147.3087,5,4,True,True,122
18513,-0.8286542,-1.053612,1015.612,41.62571,-0.3798828, -0.01464844, -0.8828125, -0.04437494, -0.2415624, 0.07281256,147.3087,5,4,True,True,122
18579,-0.8111663,-0.7936783,1015.603,-1,-0.3803711, -0.01611328, -0.8828125, 0.04937506, -0.2571874, 0.07281256,147.3087,5,4,True,True,122
18645,-1.807507,-2.803848,1015.677,-1,-0.3803711, -0.015625, -0.8862305, 0.002500057, -0.2259374, 0.1040626,147.3087,5,4,True,True,122
18710,-1.161961,-0.5164146,1015.593,-1,-0.3803711, -0.01757813, -0.8823242, 0.002500057, -0.1790624, 0.1040626,147.3087,5,4,True,True,122
18778,-2.286162,-3.410362,1015.699,-1,-0.3808594, -0.01611328, -0.8842773, 0.01812506, -0.3040624, 0.1196876,147.3087,5,4,True,True,122
18849,-2.709628,-3.133095,1015.689,41.5938,-0.3803711, -0.015625, -0.8862305, 0.002500057, -0.2259374, 0.08843756,147.3087,5,4,True,True,122
18919,-2.080904,-1.452179,1015.627,41.57556,-0.3793945, -0.015625, -0.8862305, -0.01312494, -0.1946874, 0.05718756,147.3087,5,4,True,True,122
18989,-2.069802,-2.058701,1015.649,-1,-0.3798828, -0.01855469, -0.8842773, 0.03375006, -0.2103124, 0.1040626,147.3087,5,4,True,True,122
19060,-2.930703,-3.791603,1015.713,-1,-0.3798828, -0.01660156, -0.8833008, 0.04937506, -0.2884374, 0.1196876,147.3087,5,4,True,True,122
19128,-3.092552,-3.254402,1015.693,41.54819,-0.3798828, -0.01611328, -0.8837891, 0.03375006, -0.2259374, 0.08843756,147.3087,5,4,True,True,122
19313,-3.805988,-4.519424,1015.74,41.51172,-0.378418, -0.01806641, -0.8862305, -0.05999994, -0.2415624, 0.1196876,147.3087,5,4,True,True,122
19384,-2.750387,-1.694786,1015.636,41.49804,-0.378418, -0.015625, -0.8847656, 0.002500057, -0.1321874, 0.08843756,147.3087,5,4,True,True,122
19458,-1.815356,-0.8803253,1015.606,41.48892,-0.3793945, -0.01611328, -0.8833008, -0.01312494, -0.1946874, 0.1040626,147.3087,5,4,True,True,122
19531,-1.209209,-0.6030617,1015.596,-1,-0.3779297, -0.01806641, -0.8842773, 0.06500006, -0.2259374, 0.02593756,147.3087,5,4,True,True,122
19606,-0.5075662,0.1940765,1015.566,-1,-0.3803711, -0.01757813, -0.8833008, 0.09625006, -0.2103124, 0.05718756,147.3087,5,4,True,True,122
19680,-0.01811302,0.4713402,1015.556,-1,-0.3779297, -0.01757813, -0.8828125, 0.03375006, -0.2259374, 0.1196876,147.3087,5,4,True,True,122
19755,-1.783555,-3.548996,1015.704,-1,-0.3803711, -0.01611328, -0.8837891, -0.01312494, -0.2103124, 0.07281256,147.3087,5,4,True,True,122
19831,-2.397675,-3.011795,1015.684,-1,-0.3793945, -0.01660156, -0.8842773, 0.06500006, -0.2259374, 0.08843756,147.3087,5,4,True,True,122
19905,-1.29242,-0.1871643,1015.58,-1,-0.378418, -0.01708984, -0.8862305, 0.01812506, -0.2103124, 0.1040626,147.3087,5,4,True,True,122
19985,-0.7397919,-0.1871643,1015.58,41.43876,-0.3803711, -0.01513672, -0.8852539, -0.02874994, -0.1634374, 0.07281256,147.3087,5,4,True,True,122
20062,-0.05624583,0.6273003,1015.551,-1,-0.3808594, -0.01708984, -0.8867188, 0.01812506, -0.1946874, 0.1665626,147.3087,5,4,True,True,122
20150,-0.5809221,-1.105598,1015.614,-1,-0.378418, -0.01611328, -0.887207, 0.002500057, -0.1946874, 0.1040626,147.3087,5,4,True,True,122
20341,-1.857008,-3.133095,1015.689,-1,-0.3798828, -0.01708984, -0.8837891, 0.03375006, -0.1478124, 0.1196876,147.3087,5,4,True,True,122
20423,-2.226455,-2.595901,1015.669,-1,-0.3793945, -0.01416016, -0.8862305, -0.01312494, -0.2415624, 0.05718756,147.3087,5,4,True,True,122
20506,-2.575801,-2.925148,1015.681,41.39316,-0.3789063, -0.015625, -0.8852539, 0.01812506, -0.1478124, 0.1196876,147.3087,5,4,True,True,122
20586,-3.183702,-3.791603,1015.713,-1,-0.3769531, -0.01708984, -0.8847656, 0.03375006, -0.2259374, 0.08843756,147.3087,5,4,True,True,122
20671,-2.950452,-2.717201,1015.673,-1,-0.378418, -0.01660156, -0.8857422, 0.002500057, -0.1634374, 0.1353126,147.3087,5,4,True,True,122
20752,-3.700278,-4.450104,1015.737,-1,-0.3798828, -0.01513672, -0.8847656, 0.03375006, -0.2259374, 0.1040626,147.3087,5,4,True,True,122
20837,-2.662875,-1.625473,1015.633,41.34756,-0.3793945, -0.01660156, -0.8852539, -0.01312494, -0.1321874, 0.1196876,147.3087,5,4,True,True,122
20971,-2.00554,-1.348206,1015.623,41.33845,-0.3789063, -0.01513672, -0.8842773, 0.01812506, -0.1946874, 0.1196876,147.3087,5,4,True,True,122
21037,-3.123849,-4.242157,1015.73,-1,-0.3774414, -0.01464844, -0.8833008, 0.01812506, -0.1946874, 0.08843756,147.3087,5,4,True,True,122
21103,-2.842545,-2.561241,1015.668,-1,-0.378418, -0.01757813, -0.887207, -0.01312494, -0.1946874, 0.05718756,147.3087,5,4,True,True,122
21168,-2.701893,-2.561241,1015.668,-1,-0.3793945, -0.01611328, -0.887207, 0.04937506, -0.1946874, 0.07281256,147.3087,5,4,True,True,122
21234,-2.492933,-2.283974,1015.658,-1,-0.378418, -0.01611328, -0.8828125, 0.002500057, -0.1165624, 0.1509376,147.3087,5,4,True,True,122
21413,-0.9761381,0.540657,1015.554,-1,-0.3779297, -0.01513672, -0.8847656, 0.08062506, -0.1946874, 0.08843756,147.3087,5,4,True,True,122
21482,-2.09794,-3.219742,1015.692,41.30653,-0.378418, -0.01464844, -0.8833008, -0.01312494, -0.1790624, 0.1353126,147.3087,5,4,True,True,122
21549,-1.107894,-0.1178474,1015.578,-1,-0.378418, -0.015625, -0.8828125, 0.04937506, -0.2259374, 0.08843756,147.3087,5,4,True,True,122
21618,-2.059844,-3.011795,1015.684,41.28829,-0.378418, -0.01660156, -0.8862305, -0.02874994, -0.1946874, 0.07281256,147.3087,5,4,True,True,122
21688,-1.392105,-0.7243652,1015.6,-1,-0.3803711, -0.01611328, -0.8862305, 0.002500057, -0.2103124, 0.1196876,147.3087,5,4,True,True,122
21759,-1.924686,-2.457268,1015.664,-1,-0.378418, -0.01708984, -0.8837891, 0.002500057, -0.2415624, 0.1196876,147.3087,5,4,True,True,122
21828,-1.896383,-1.86808,1015.642,-1,-0.3779297, -0.01660156, -0.8837891, 0.002500057, -0.1946874, 0.1196876,147.3087,5,4,True,True,122
21899,-2.176826,-2.457268,1015.664,-1,-0.3798828, -0.01660156, -0.8862305, 0.01812506, -0.2571874, 0.05718756,147.3087,5,4,True,True,122
21974,-3.625389,-5.073952,1015.76,-1,-0.378418, -0.01513672, -0.8842773, 0.03375006, -0.2259374, 0.1040626,147.3087,5,4,True,True,122
22048,-2.772728,-1.920067,1015.644,-1,-0.378418, -0.01464844, -0.8862305, -0.02874994, -0.1634374, 0.08843756,147.3087,5,4,True,True,122
22123,-0.6568164,1.459095,1015.52,-1,-0.3808594, -0.01660156, -0.8842773, 0.01812506, -0.2571874, 0.1196876,147.3087,5,4,True,True,122
22199,-2.45815,-4.259483,1015.73,41.23813,-0.3793945, -0.01416016, -0.887207, -0.02874994, -0.2415624, 0.07281256,147.3087,5,4,True,True,122
22386,-2.544352,-2.630554,1015.67,-1,-0.378418, -0.01660156, -0.8828125, -0.01312494, -0.2103124, 0.07281256,147.3087,5,4,True,True,122
22459,-2.180223,-1.816093,1015.641,-1,-0.378418, -0.01464844, -0.8862305, -0.01312494, -0.2103124, 0.1353126,147.3087,5,4,True,True,122
22535,-1.868191,-1.55616,1015.631,-1,-0.3798828, -0.015625, -0.8847656, 0.01812506, -0.1790624, 0.08843756,147.3087,5,4,True,True,122
22614,-0.8717158,0.1247597,1015.569,41.17428,-0.3779297, -0.015625, -0.8837891, 0.01812506, -0.1478124, 0.1196876,147.3087,5,4,True,True,122
22689,-1.811789,-2.751862,1015.675,-1,-0.3793945, -0.01757813, -0.8847656, 0.01812506, -0.1946874, 0.07281256,147.3087,5,4,True,True,122
22770,-2.316482,-2.821175,1015.677,41.14692,-0.3789063, -0.01611328, -0.8833008, -0.05999994, -0.2571874, 0.1040626,147.3087,5,4,True,True,122
22849,-1.858337,-1.400192,1015.625,-1,-0.3779297, -0.01806641, -0.8833008, 0.002500057, -0.2259374, 0.1196876,147.3087,5,4,True,True,122
22927,-1.655258,-1.452179,1015.627,-1,-0.3789063, -0.01611328, -0.8837891, 0.01812506, -0.1634374, 0.1353126,147.3087,5,4,True,True,122
23010,-1.553718,-1.452179,1015.627,41.12868,-0.3774414, -0.01513672, -0.8847656, -0.04437494, -0.2415624, 0.1196876,147.3087,5,4,True,True,122
23112,-1.944839,-2.33596,1015.659,-1,-0.3798828, -0.01513672, -0.8862305, 0.01812506, -0.2259374, 0.1040626,147.3087,5,4,True,True,122
23195,-2.166393,-2.387947,1015.661,-1,-0.3789063, -0.01757813, -0.8842773, -0.02874994, -0.1634374, 0.05718756,147.3087,5,4,True,True,122
23277,-1.133455,-0.1005173,1015.577,-1,-0.3793945, -0.01513672, -0.8852539, 0.01812506, -0.1634374, 0.1353126,147.3087,5,4,True,True,122
23533,-1.249497,-1.36554,1015.624,-1,-0.378418, -0.015625, -0.8837891, -0.01312494, -0.2259374, 0.1196876,147.3087,5,4,True,True,122
23600,-2.182633,-3.115768,1015.688,41.06028,-0.3779297, -0.01660156, -0.8847656, 0.01812506, -0.1634374, 0.08843756,147.3087,5,4,True,True,122
23666,-1.22822,-0.2738075,1015.584,41.05572,-0.3789063, -0.01660156, -0.8837891, -0.02874994, -0.2571874, 0.05718756,147.3087,5,4,True,True,122
23731,-1.62613,-2.02404,1015.648,-1,-0.3789063, -0.01611328, -0.8842773, 0.04937506, -0.2415624, 0.1509376,147.3087,5,4,True,True,122
23798,-1.417855,-1.209579,1015.618,-1,-0.3779297, -0.01513672, -0.887207, 0.002500057, -0.2103124, 0.08843756,147.3087,5,4,True,True,122
23865,-1.313717,-1.209579,1015.618,41.03292,-0.3769531, -0.01513672, -0.8847656, 0.002500057, -0.2259374, 0.08843756,147.3087,5,4,True,True,122
23932,-0.7157823,-0.1178474,1015.578,-1,-0.3789063, -0.01660156, -0.8847656, 0.04937506, -0.2728124, 0.1040626,147.3087,5,4,True,True,122
24000,-1.153297,-1.590813,1015.632,41.00556,-0.3774414, -0.01464844, -0.8837891, 0.01812506, -0.2259374, 0.05718756,147.3087,5,4,True,True,122
24071,-1.805283,-2.457268,1015.664,41.00556,-0.3789063, -0.01416016, -0.8857422, 0.01812506, -0.2571874, 0.07281256,147.3087,5,4,True,True,122
24142,-0.8575897,0.09010315,1015.57,-1,-0.3789063, -0.01708984, -0.8852539, 0.002500057, -0.2103124, 0.07281256,147.3087,5,4,True,True,122
24212,-0.6783371,-0.4990845,1015.592,-1,-0.378418, -0.01660156, -0.8862305, 0.08062506, -0.1790624, 0.1353126,147.3087,5,4,True,True,122
24283,-1.160568,-1.642799,1015.634,-1,-0.3789063, -0.01611328, -0.8852539, -0.01312494, -0.2103124, 0.1353126,147.3087,5,4,True,True,122
24462,-1.869568,-2.578568,1015.668,-1,-0.3774414, -0.01513672, -0.8862305, 0.03375006, -0.2259374, 0.07281256,147.3087,5,4,True,True,122
24534,-1.513577,-1.157585,1015.616,-1,-0.3779297, -0.015625, -0.8857422, 0.01812506, -0.2728124, 0.05718756,147.3087,5,4,True,True,122
24606,-2.349333,-3.185089,1015.691,40.95083,-0.3789063, -0.015625, -0.8862305, 0.01812506, -0.2415624, 0.1040626,147.3087,5,4,True,True,122
24682,-0.9476614,0.45401,1015.557,40.93715,-0.378418, -0.01611328, -0.8857422, 0.01812506, -0.1946874, 0.05718756,147.3087,5,4,True,True,122
24759,0.03043985,1.008541,1015.537,-1,-0.375, -0.01757813, -0.8862305, 0.01812506, -0.2728124, 0.1040626,147.3087,5,4,True,True,122
24833,-1.499341,-3.029121,1015.685,-1,-0.378418, -0.01513672, -0.8881836, 0.002500057, -0.2415624, 0.1353126,147.3087,5,4,True,True,122
24912,-0.9818844,-0.4644279,1015.591,40.90523,-0.3774414, -0.01660156, -0.8852539, -0.01312494, -0.2259374, 0.1196876,147.3087,5,4,True,True,122
24988,-0.5931875,-0.2044907,1015.581,-1,-0.3774414, -0.01708984, -0.887207, 0.01812506, -0.2259374, 0.1040626,147.3087,5,4,True,True,122
25063,-2.001775,-3.410362,1015.699,-1,-0.3774414, -0.015625, -0.8876953, 0.002500057, -0.2259374, 0.07281256,147.3087,5,4,True,True,122
25140,-1.995577,-1.98938,1015.647,-1,-0.3779297, -0.015625, -0.8876953, -0.02874994, -0.2259374, 0.07281256,147.3087,5,4,True,True,122
25219,-1.013389,-0.03120041,1015.575,-1,-0.3779297, -0.01660156, -0.8847656, 0.002500057, -0.2415624, 0.07281256,147.3087,5,4,True,True,122
25300,-0.3836628,0.2460632,1015.565,-1,-0.378418, -0.01416016, -0.8857422, 0.03375006, -0.2415624, 0.1040626,147.3087,5,4,True,True,122
25494,-0.4067171,-0.4297714,1015.589,-1,-0.3779297, -0.01660156, -0.887207, 0.03375006, -0.2728124, 0.05718756,147.3087,5,4,True,True,122
25576,-3.000268,-5.593819,1015.779,-1,-0.378418, -0.01416016, -0.887207, 0.01812506, -0.1634374, 0.07281256,147.3087,5,4,True,True,122
25659,-3.153328,-3.306389,1015.695,40.8049,-0.3789063, -0.01708984, -0.8862305, 0.002500057, -0.1790624, 0.07281256,147.3087,5,4,True,True,122
25739,-2.112137,-1.070946,1015.613,-1,-0.3754883, -0.01513672, -0.8881836, -0.01312494, -0.2103124, 0.1040626,147.3087,5,4,True,True,122
25819,-1.322941,-0.5337448,1015.593,-1,-0.3769531, -0.01513672, -0.8857422, 0.08062506, -0.2259374, 0.05718756,147.3087,5,4,True,True,122
25900,-1.803457,-2.283974,1015.657,-1,-0.378418, -0.015625, -0.8828125, 0.01812506, -0.2259374, 0.05718756,147.3087,5,4,True,True,122
26035,-1.766452,-1.729446,1015.637,40.77298,-0.3774414, -0.01464844, -0.8867188, -0.01312494, -0.2103124, 0.05718756,147.3087,5,4,True,True,122
26100,-2.319807,-2.873161,1015.679,40.76386,-0.3774414, -0.01708984, -0.8881836, -0.02874994, -0.2415624, 0.1040626,147.3087,5,4,True,True,122
26165,-2.899745,-3.479683,1015.701,-1,-0.378418, -0.015625, -0.8881836, -0.01312494, -0.2415624, 0.1040626,147.3087,5,4,True,True,122
26232,-2.921113,-2.942482,1015.681,-1,-0.3774414, -0.01513672, -0.8881836, 0.01812506, -0.1634374, 0.1353126,147.3087,5,4,True,True,122
26297,-2.931798,-2.942482,1015.681,-1,-0.3769531, -0.01708984, -0.8857422, 0.01812506, -0.2259374, 0.1040626,147.3087,5,4,True,True,122
26365,-2.122675,-1.313553,1015.622,-1,-0.378418, -0.01708984, -0.8876953, 0.01812506, -0.3040624, 0.1040626,147.3087,5,4,True,True,122
26550,-1.163583,-0.2044907,1015.581,-1,-0.3798828, -0.015625, -0.8857422, -0.01312494, -0.2415624, 0.05718756,147.3087,5,4,True,True,122
26618,-3.144761,-5.125938,1015.762,-1,-0.378418, -0.01660156, -0.8857422, 0.04937506, -0.2259374, 0.1040626,147.3087,5,4,True,True,122
26686,-3.858086,-4.571411,1015.741,40.68177,-0.3779297, -0.01416016, -0.8891602, 0.01812506, -0.1165624, 0.05718756,147.3087,5,4,True,True,122
26760,-2.230574,-0.6030617,1015.596,40.67265,-0.3764648, -0.01660156, -0.8862305, -0.01312494, -0.2571874, 0.07281256,147.3087,5,4,True,True,122
26831,-2.014667,-1.798759,1015.64,40.66352,-0.378418, -0.01708984, -0.8867188, 0.01812506, -0.2103124, 0.1040626,147.3087,5,4,True,True,122
26904,-2.911798,-3.808929,1015.714,-1,-0.3779297, -0.01611328, -0.8881836, 0.04937506, -0.2259374, 0.08843756,147.3087,5,4,True,True,122
26978,-2.65854,-2.405281,1015.662,-1,-0.3769531, -0.01660156, -0.887207, 0.04937506, -0.1946874, 0.04156256,147.3087,5,4,True,True,122
27051,-2.687871,-2.717201,1015.674,40.63616,-0.378418, -0.01611328, -0.8852539, 0.01812506, -0.2884374, 0.08843756,147.3087,5,4,True,True,122
27124,-1.862078,-1.036285,1015.612,-1,-0.3798828, -0.01708984, -0.887207, -0.02874994, -0.1946874, 0.1040626,147.3087,5,4,True,True,122
27197,-2.021039,-2.18,1015.654,-1,-0.378418, -0.01660156, -0.8852539, 0.002500057, -0.2103124, 0.1353126,147.3087,5,4,True,True,122
27272,-0.6882043,0.6446304,1015.55,-1,-0.3774414, -0.015625, -0.8852539, -0.07562494, -0.1634374, 0.07281256,147.3087,5,4,True,True,122
27348,-2.309221,-3.930237,1015.718,-1,-0.3798828, -0.01513672, -0.8862305, 0.002500057, -0.1946874, 0.07281256,147.3087,5,4,True,True,122
27537,-2.842461,-3.375702,1015.698,-1,-0.378418, -0.015625, -0.8867188, 0.09625006, -0.2259374, 0.04156256,147.3087,5,4,True,True,122
27615,-1.428168,-0.01387405,1015.574,-1,-0.378418, -0.01855469, -0.8867188, -0.01312494, -0.2259374, 0.1040626,147.3087,5,4,True,True,122
27693,-0.03652298,1.355122,1015.524,40.57231,-0.3793945, -0.01757813, -0.8867188, 0.04937506, -0.2415624, 0.04156256,147.3087,5,4,True,True,122
27770,-0.9523016,-1.86808,1015.642,-1,-0.378418, -0.01660156, -0.8862305, 0.01812506, -0.1946874, 0.1040626,147.3087,5,4,True,True,122
27850,-1.566151,-2.18,1015.654,-1,-0.3769531, -0.01806641, -0.887207, -0.02874994, -0.1478124, 0.1196876,147.3087,5,4,True,True,122
27930,-2.314966,-3.063782,1015.686,-1,-0.3798828, -0.015625, -0.887207, 0.04937506, -0.1321874, 0.1040626,147.3087,5,4,True,True,122
28010,-2.576737,-2.838509,1015.678,-1,-0.3779297, -0.01660156, -0.8881836, 0.002500057, -0.2728124, 0.1040626,147.3087,5,4,True,True,122
28094,-2.005795,-1.434853,1015.626,-1,-0.3779297, -0.01513672, -0.8862305, 0.01812506, -0.2259374, 0.08843756,147.3087,5,4,True,True,122
28176,-1.720324,-1.434853,1015.626,-1,-0.3774414, -0.01757813, -0.8876953, 0.01812506, -0.2415624, 0.02593756,147.3087,5,4,True,True,122
28256,-1.031724,-0.3431244,1015.586,-1,-0.3774414, -0.01757813, -0.887207, 0.01812506, -0.2103124, 0.07281256,147.3087,5,4,True,True,122
28360,-0.9820181,-0.932312,1015.608,-1,-0.3769531, -0.015625, -0.8852539, -0.01312494, -0.1634374, 0.08843756,147.3087,5,4,True,True,122
28444,-0.6885645,-0.3951111,1015.588,40.46285,-0.3779297, -0.01464844, -0.8862305, 0.04937506, -0.2103124, 0.1196876,147.3087,5,4,True,True,122
28689,-0.4378644,-0.1871643,1015.58,-1,-0.3769531, -0.01660156, -0.8857422, 0.01812506, -0.1634374, 0.1196876,147.3087,5,4,True,True,122
28754,-1.317599,-2.197334,1015.654,-1,-0.3779297, -0.01513672, -0.887207, 0.01812506, -0.1634374, 0.1196876,147.3087,5,4,True,True,122
28820,-1.480199,-1.642799,1015.634,-1,-0.378418, -0.01660156, -0.887207, 0.01812506, -0.1946874, 0.05718756,147.3087,5,4,True,True,122
28885,-0.8596752,-0.239151,1015.582,-1,-0.3789063, -0.01660156, -0.8876953, -0.04437494, -0.2259374, 0.07281256,147.3087,5,4,True,True,122
28954,-2.86284,-4.866005,1015.752,40.40812,-0.3789063, -0.01660156, -0.8876953, -0.01312494, -0.2415624, 0.1353126,147.3087,5,4,True,True,122
29020,-2.339467,-1.816093,1015.64,-1,-0.3764648, -0.01513672, -0.8886719, -0.01312494, -0.1946874, 0.1040626,147.3087,5,4,True,True,122
29087,-1.367289,-0.3951111,1015.588,-1,-0.3774414, -0.01660156, -0.8876953, 0.002500057, -0.2259374, 0.04156256,147.3087,5,4,True,True,122
29157,-1.756315,-2.14534,1015.652,-1,-0.3769531, -0.01660156, -0.8886719, 0.01812506, -0.2103124, 0.1196876,147.3087,5,4,True,True,122
29226,-1.838191,-1.920067,1015.644,-1,-0.3774414, -0.01660156, -0.887207, -0.02874994, -0.1946874, 0.08843756,147.3087,5,4,True,True,122
29295,-3.456071,-5.073952,1015.76,-1,-0.3789063, -0.01660156, -0.8896484, -0.05999994, -0.2728124, 0.1196876,147.3087,5,4,True,True,122
29367,-2.419468,-1.382866,1015.624,-1,-0.378418, -0.015625, -0.8862305, -0.01312494, -0.1946874, 0.1040626,147.3087,5,4,True,True,122
29437,-1.92716,-1.434853,1015.626,-1,-0.3789063, -0.01708984, -0.8847656, 0.002500057, -0.1790624, 0.1040626,147.3087,5,4,True,True,122
29623,-1.135142,-0.3431244,1015.586,-1,-0.3779297, -0.01660156, -0.8881836, 0.01812506, -0.08531237, 0.07281256,147.3087,5,4,True,True,122
29705,-2.290082,-3.445023,1015.7,40.31234,-0.3779297, -0.01416016, -0.8852539, -0.01312494, -0.2103124, 0.08843756,147.3087,5,4,True,True,122
29776,-2.295695,-2.301308,1015.658,-1,-0.3759766, -0.015625, -0.8862305, 0.01812506, -0.1790624, 0.08843756,147.3087,5,4,True,True,122
29851,-2.159868,-2.02404,1015.648,40.3169,-0.3779297, -0.01513672, -0.8881836, -0.02874994, -0.1321874, 0.07281256,147.3087,5,4,True,True,122
29924,-2.941075,-3.722282,1015.71,-1,-0.3764648, -0.01611328, -0.8867188, 0.04937506, -0.1478124, 0.04156256,147.3087,5,4,True,True,122
30001,-3.054415,-3.167755,1015.69,40.29866,-0.3774414, -0.01464844, -0.8852539, 0.002500057, -0.3040624, 0.1196876,147.3087,5,4,True,True,122
30077,-3.111085,-3.167755,1015.69,-1,-0.378418, -0.01513672, -0.8886719, -0.02874994, -0.1634374, 0.07281256,147.3087,5,4,True,True,122
30154,-2.160332,-1.209579,1015.618,-1,-0.3789063, -0.01708984, -0.8876953, -0.01312494, -0.2259374, 0.05718756,147.3087,5,4,True,True,122
30233,-1.849579,-1.538826,1015.63,-1,-0.3774414, -0.01513672, -0.8876953, -0.05999994, -0.1165624, 0.1353126,147.3087,5,4,True,True,122
30312,-2.560654,-3.271729,1015.694,-1,-0.3779297, -0.01660156, -0.8837891, 0.01812506, -0.2259374, 0.1040626,147.3087,5,4,True,True,122
30393,-2.950851,-3.341049,1015.696,40.25305,-0.378418, -0.01660156, -0.8862305, 0.01812506, -0.1634374, 0.07281256,147.3087,5,4,True,True,122
30474,-2.296825,-1.642799,1015.634,-1,-0.3779297, -0.01513672, -0.8842773, 0.04937506, -0.1790624, 0.07281256,147.3087,5,4,True,True,122
30665,-3.000891,-3.704956,1015.71,-1,-0.3774414, -0.01611328, -0.8881836, -0.02874994, -0.1165624, 0.08843756,147.3087,5,4,True,True,122
30744,-3.794814,-4.588737,1015.742,-1,-0.3793945, -0.01708984, -0.8881836, 0.03375006, -0.1946874, 0.1040626,147.3087,5,4,True,True,122
30825,-2.33757,-0.8803253,1015.606,-1,-0.3779297, -0.015625, -0.887207, 0.01812506, -0.1946874, 0.05718756,147.3087,5,4,True,True,122
30910,-1.773575,-1.209579,1015.618,-1,-0.3779297, -0.015625, -0.8867188, 0.08062506, -0.3353124, 0.05718756,147.3087,5,4,True,True,122
30990,-2.496658,-3.219742,1015.692,-1,-0.3779297, -0.01660156, -0.8876953, -0.01312494, -0.1478124, 0.1509376,147.3087,5,4,True,True,122
31121,-2.78022,-3.063782,1015.686,-1,-0.3789063, -0.01660156, -0.8881836, 0.01812506, -0.1946874, 0.1040626,147.3087,5,4,True,True,122
31184,-1.093788,0.5926437,1015.552,-1,-0.3769531, -0.01757813, -0.8891602, -0.01312494, -0.1634374, 0.05718756,147.3087,5,4,True,True,122
31249,-1.394287,-1.694786,1015.636,40.11622,-0.378418, -0.01757813, -0.8867188, 0.06500006, -0.1634374, 0.05718756,147.3087,5,4,True,True,122
31314,-2.419655,-3.445023,1015.7,-1,-0.3774414, -0.01660156, -0.887207, 0.01812506, -0.1321874, 0.1353126,147.3087,5,4,True,True,122
31380,-3.53019,-4.640724,1015.744,-1,-0.3774414, -0.015625, -0.8876953, 0.01812506, -0.1478124, 0.04156256,147.3087,5,4,True,True,122
31449,-3.374966,-3.219742,1015.692,-1,-0.3759766, -0.01611328, -0.8857422, -0.01312494, -0.08531237, 0.05718756,147.3087,5,4,True,True,122
31516,-1.313181,0.7486038,1015.546,-1,-0.3764648, -0.01513672, -0.8867188, -0.02874994, -0.2728124, 0.1040626,147.3087,5,4,True,True,122
31695,-2.457082,-3.600983,1015.706,40.05236,-0.3789063, -0.01708984, -0.887207, -0.02874994, -0.1946874, 0.1040626,147.3087,5,4,True,True,122
31765,-3.462256,-4.46743,1015.737,40.04324,-0.3764648, -0.015625, -0.8876953, -0.01312494, -0.1946874, 0.1353126,147.3087,5,4,True,True,122
31835,-2.413898,-1.36554,1015.624,40.03867,-0.3774414, -0.01660156, -0.8857422, 0.002500057, -0.2728124, 0.07281256,147.3087,5,4,True,True,122
31905,-3.605291,-4.796684,1015.749,-1,-0.3769531, -0.01611328, -0.8891602, 0.03375006, -0.1790624, 0.1040626,147.3087,5,4,True,True,122
31977,-2.918639,-2.231987,1015.656,-1,-0.3774414, -0.01611328, -0.8881836, 0.01812506, -0.2415624, 0.07281256,147.3087,5,4,True,True,122
32051,-3.450431,-3.982224,1015.72,40.03411,-0.3769531, -0.01513672, -0.8857422, -0.01312494, -0.1321874, 0.05718756,147.3087,5,4,True,True,122
32126,-3.14447,-2.838509,1015.678,40.02499,-0.3774414, -0.015625, -0.8867188, 0.03375006, -0.1946874, 0.08843756,147.3087,5,4,True,True,122
32202,-3.580673,-4.016876,1015.721,-1,-0.3774414, -0.01611328, -0.8891602, 0.04937506, -0.1478124, 0.08843756,147.3087,5,4,True,True,122
32277,-2.932323,-2.283974,1015.658,-1,-0.3779297, -0.01708984, -0.8852539, 0.002500057, -0.2103124, 0.08843756,147.3087,5,4,True,True,122
32353,-1.793684,-0.6550446,1015.598,-1,-0.3779297, -0.01513672, -0.8881836, 0.002500057, -0.1165624, 0.07281256,147.3087,5,4,True,True,122
32431,-2.49805,-3.202415,1015.691,-1,-0.3779297, -0.01611328, -0.8862305, 0.01812506, -0.1478124, 0.1040626,147.3087,5,4,True,True,122
32508,-2.304368,-2.110687,1015.651,-1,-0.3759766, -0.01611328, -0.8862305, 0.002500057, -0.1321874, 0.1040626,147.3087,5,4,True,True,122
32697,-0.9425076,0.4193535,1015.558,39.97482,-0.3759766, -0.01513672, -0.887207, 0.01812506, -0.2103124, 0.1040626,147.3087,5,4,True,True,122
32772,-0.261577,0.4193535,1015.558,-1,-0.3774414, -0.01660156, -0.8828125, 0.002500057, -0.1946874, 0.1040626,147.3087,5,4,True,True,122
32859,-2.35584,-4.450104,1015.737,-1,-0.3769531, -0.015625, -0.8876953, 0.01812506, -0.1946874, 0.05718756,147.3087,5,4,True,True,122
32941,-0.4137143,1.528412,1015.518,39.95201,-0.3769531, -0.01806641, -0.8847656, 0.03375006, -0.1634374, 0.1040626,147.3087,5,4,True,True,122
33020,-2.431909,-4.450104,1015.737,-1,-0.3779297, -0.01660156, -0.8862305, 0.03375006, -0.1946874, 0.1040626,147.3087,5,4,True,True,122
33102,-4.446092,-6.460274,1015.811,39.94289,-0.3789063, -0.01611328, -0.8881836, 0.08062506, -0.1634374, 0.1196876,147.3087,5,4,True,True,122
33182,-3.330376,-2.214661,1015.655,-1,-0.3774414, -0.01367188, -0.8857422, -0.01312494, -0.1946874, 0.1040626,147.3087,5,4,True,True,122
33263,-2.07069,-0.8110046,1015.603,-1,-0.3779297, -0.01611328, -0.8842773, -0.02874994, -0.1634374, 0.02593756,147.3087,5,4,True,True,122
33345,-1.744108,-1.417526,1015.625,-1,-0.3779297, -0.01513672, -0.8852539, -0.01312494, -0.2103124, 0.08843756,147.3087,5,4,True,True,122
33430,-2.854499,-3.96489,1015.719,-1,-0.3779297, -0.01464844, -0.8852539, 0.04937506, -0.1790624, 0.1040626,147.3087,5,4,True,True,122
33516,-1.564153,-0.2738075,1015.584,-1,-0.3769531, -0.01367188, -0.8847656, -0.05999994, -0.2415624, 0.05718756,147.3087,5,4,True,True,122
33669,-1.924063,-2.283974,1015.657,-1,-0.3774414, -0.01416016, -0.8852539, 0.01812506, -0.1946874, 0.1040626,147.3087,5,4,True,True,122
33844,-1.688121,-1.452179,1015.627,-1,-0.3774414, -0.01660156, -0.8852539, 0.002500057, -0.2259374, 0.08843756,147.3087,5,4,True,True,122
33910,-2.306635,-2.925148,1015.681,-1,-0.3774414, -0.01660156, -0.8852539, 0.002500057, -0.2259374, 0.07281256,147.3087,5,4,True,True,122
33975,-2.754525,-3.202415,1015.691,39.89727,-0.3764648, -0.01660156, -0.8867188, 0.002500057, -0.2259374, 0.08843756,147.3087,5,4,True,True,122
34043,-1.566153,-0.3777809,1015.587,39.88815,-0.3769531, -0.015625, -0.8857422, -0.02874994, -0.2259374, 0.05718756,147.3087,5,4,True,True,122
34110,-1.266563,-0.9669724,1015.609,-1,-0.3779297, -0.01660156, -0.8867188, 0.01812506, -0.1946874, 0.04156256,147.3087,5,4,True,True,122
34176,-1.116768,-0.9669724,1015.609,-1,-0.3769531, -0.01708984, -0.8833008, -0.02874994, -0.2103124, 0.08843756,147.3087,5,4,True,True,122
34245,-0.7732695,-0.4297714,1015.589,39.8699,-0.3774414, -0.01611328, -0.8823242, -0.02874994, -0.1946874, 0.07281256,147.3087,5,4,True,True,122
34316,-1.173378,-1.573486,1015.631,-1,-0.3769531, -0.015625, -0.8862305, 0.03375006, -0.1946874, 0.1196876,147.3087,5,4,True,True,122
34387,-1.529392,-1.885406,1015.643,-1,-0.3769531, -0.015625, -0.8876953, 0.002500057, -0.2259374, 0.1353126,147.3087,5,4,True,True,122
34456,-2.981085,-4.432777,1015.737,-1,-0.3774414, -0.015625, -0.8857422, 0.002500057, -0.1634374, 0.1040626,147.3087,5,4,True,True,122
34528,-2.026015,-1.070946,1015.613,-1,-0.3774414, -0.01611328, -0.8857422, -0.01312494, -0.2884374, 0.1040626,147.3087,5,4,True,True,122
34600,-1.409847,-0.7936783,1015.603,-1,-0.375, -0.01416016, -0.8867188, 0.08062506, -0.1790624, 0.05718756,147.3087,5,4,True,True,122
34781,-1.838247,-2.266647,1015.657,39.81973,-0.3779297, -0.015625, -0.887207, 0.002500057, -0.1634374, 0.07281256,147.3087,5,4,True,True,122
34856,-1.913813,-1.98938,1015.647,39.81517,-0.3769531, -0.01660156, -0.8862305, 0.01812506, -0.1634374, 0.08843756,147.3087,5,4,True,True,122
34928,-0.4006495,1.112514,1015.533,-1,-0.3779297, -0.015625, -0.8867188, 0.01812506, -0.1946874, 0.05718756,147.3087,5,4,True,True,122
35004,-1.385635,-2.370621,1015.66,-1,-0.3769531, -0.01660156, -0.8862305, 0.002500057, -0.1478124, 0.1040626,147.3087,5,4,True,True,122
35082,-0.4918059,0.4020233,1015.559,39.76499,-0.3793945, -0.01708984, -0.8862305, 0.01812506, -0.1634374, 0.1040626,147.3087,5,4,True,True,122
35159,-0.6687355,-0.845665,1015.605,-1,-0.3774414, -0.01416016, -0.887207, 0.002500057, -0.1946874, 0.1040626,147.3087,5,4,True,True,122
35237,0.3691864,1.407108,1015.522,39.70569,-0.375, -0.01611328, -0.8876953, 0.04937506, -0.2728124, 0.08843756,147.3087,5,4,True,True,122
35317,-0.8274269,-2.02404,1015.648,-1,-0.378418, -0.01513672, -0.8876953, 0.01812506, -0.1946874, 0.1196876,147.3087,5,4,True,True,122
35397,-1.183126,-1.538826,1015.63,39.68744,-0.3779297, -0.01367188, -0.8867188, 0.03375006, -0.1946874, 0.07281256,147.3087,5,4,True,True,122
35478,-0.7891188,-0.3951111,1015.588,-1,-0.378418, -0.01708984, -0.8862305, 0.01812506, -0.1946874, 0.04156256,147.3087,5,4,True,True,122
35555,-2.143064,-3.497009,1015.702,-1,-0.3779297, -0.01708984, -0.8852539, -0.02874994, -0.1634374, 0.07281256,147.3087,5,4,True,True,122
35638,-2.109545,-2.076027,1015.65,39.69201,-0.3779297, -0.01611328, -0.8862305, 0.01812506, -0.1321874, 0.05718756,147.3087,5,4,True,True,122
35829,-1.520929,-0.932312,1015.608,-1,-0.3779297, -0.01611328, -0.8876953, 0.01812506, -0.1790624, 0.08843756,147.3087,5,4,True,True,122
35910,-1.503884,-1.486839,1015.628,-1,-0.3754883, -0.01660156, -0.8881836, -0.01312494, -0.1946874, 0.08843756,147.3087,5,4,True,True,122
35999,-2.223183,-2.942482,1015.682,-1,-0.3759766, -0.01611328, -0.8881836, 0.03375006, -0.1634374, 0.1040626,147.3087,5,4,True,True,122
36078,-2.314232,-2.405281,1015.662,-1,-0.3764648, -0.01464844, -0.8852539, 0.04937506, -0.1634374, 0.1196876,147.3087,5,4,True,True,122
36162,-3.364838,-4.415443,1015.736,-1,-0.3759766, -0.01660156, -0.8857422, 0.03375006, -0.1321874, 0.1196876,147.3087,5,4,True,True,122
36294,-3.205647,-3.046455,1015.686,39.64183,-0.3754883, -0.01464844, -0.8876953, 0.03375006, -0.1634374, 0.08843756,147.3087,5,4,True,True,122
36360,-1.575102,0.05544281,1015.572,39.63271,-0.375, -0.01367188, -0.8852539, 0.01812506, -0.1946874, 0.1353126,147.3087,5,4,True,True,122
36424,-1.634944,-1.694786,1015.636,39.63271,-0.3759766, -0.01416016, -0.8857422, 0.03375006, -0.2103124, 0.05718756,147.3087,5,4,True,True,122
36491,-3.943635,-6.252327,1015.803,-1,-0.3779297, -0.01708984, -0.8837891, 0.03375006, -0.1946874, 0.08843756,147.3087,5,4,True,True,122
36560,-2.819211,-1.694786,1015.636,-1,-0.375, -0.01464844, -0.8862305, 0.002500057, -0.1946874, 0.08843756,147.3087,5,4,True,True,122
36626,-2.846186,-2.873161,1015.679,-1,-0.3774414, -0.01513672, -0.8857422, -0.04437494, -0.1946874, 0.08843756,147.3087,5,4,True,True,122
36695,-2.591073,-2.33596,1015.659,-1,-0.3764648, -0.01806641, -0.8857422, 0.002500057, -0.1790624, 0.05718756,147.3087,5,4,True,True,122
36876,-2.463517,-2.33596,1015.659,39.60077,-0.3764648, -0.01708984, -0.8852539, -0.02874994, -0.1634374, 0.1040626,147.3087,5,4,True,True,122
36946,-2.962933,-3.462349,1015.701,39.59165,-0.3754883, -0.01611328, -0.8852539, 0.04937506, -0.1790624, 0.1040626,147.3087,5,4,True,True,122
37013,-3.385931,-3.808929,1015.713,-1,-0.3764648, -0.01660156, -0.887207, 0.01812506, -0.1634374, 0.05718756,147.3087,5,4,True,True,122
37086,-3.727397,-4.068863,1015.723,39.59165,-0.3774414, -0.01708984, -0.8881836, 0.01812506, -0.2415624, 0.07281256,147.3087,5,4,True,True,122
37157,-3.629533,-3.53167,1015.703,39.58709,-0.3764648, -0.015625, -0.8842773, -0.02874994, -0.2571874, 0.08843756,147.3087,5,4,True,True,122
37226,-2.87011,-2.110687,1015.651,-1,-0.3769531, -0.01660156, -0.8847656, 0.002500057, -0.1790624, 0.07281256,147.3087,5,4,True,True,122
37299,-3.062256,-3.254402,1015.693,-1,-0.3779297, -0.01611328, -0.8852539, 0.08062506, -0.1790624, 0.08843756,147.3087,5,4,True,True,122
37374,-2.751095,-2.439934,1015.663,-1,-0.3769531, -0.01660156, -0.8857422, 0.04937506, -0.1634374, 0.1040626,147.3087,5,4,True,True,122
37447,-3.8692,-4.987305,1015.757,-1,-0.3769531, -0.01611328, -0.8867188, 0.002500057, -0.2415624, 0.08843756,147.3087,5,4,True,True,122
37523,-3.752421,-3.635643,1015.707,-1,-0.3764648, -0.01611328, -0.8823242, -0.01312494, -0.2103124, 0.04156256,147.3087,5,4,True,True,122
37597,-4.551816,-5.351212,1015.77,-1,-0.3774414, -0.015625, -0.8867188, -0.05999994, -0.1634374, 0.1040626,147.3087,5,4,True,True,122
37675,-4.13705,-3.722282,1015.71,-1,-0.3769531, -0.01757813, -0.887207, -0.02874994, -0.1165624, 0.1040626,147.3087,5,4,True,True,122
37863,-4.960744,-5.784439,1015.786,-1,-0.3764648, -0.01611328, -0.8867188, 0.08062506, -0.1634374, 0.07281256,147.3087,5,4,True,True,122
37943,-4.393504,-3.826263,1015.714,39.47305,-0.3764648, -0.01708984, -0.8876953, 0.03375006, -0.2415624, 0.1040626,147.3087,5,4,True,True,122
38023,-4.681741,-4.969978,1015.756,39.4776,-0.3779297, -0.01464844, -0.887207, 0.04937506, -0.1790624, 0.07281256,147.3087,5,4,True,True,122
38103,-3.110284,-1.538826,1015.63,39.4548,-0.3759766, -0.015625, -0.8876953, 0.01812506, -0.1634374, 0.05718756,147.3087,5,4,True,True,122
38185,-2.489182,-1.86808,1015.642,-1,-0.3764648, -0.01513672, -0.8867188, 0.002500057, -0.2259374, 0.08843756,147.3087,5,4,True,True,122
38265,-2.473225,-2.457268,1015.664,-1,-0.3759766, -0.01611328, -0.8881836, 0.04937506, -0.1946874, 0.07281256,147.3087,5,4,True,True,122
38349,-4.336782,-6.20034,1015.801,39.44111,-0.3764648, -0.01611328, -0.8891602, 0.01812506, -0.1946874, 0.08843756,147.3087,5,4,True,True,122
38434,-4.999961,-5.663139,1015.781,39.41374,-0.3754883, -0.01513672, -0.8852539, -0.01312494, -0.2103124, 0.08843756,147.3087,5,4,True,True,122
38516,-2.940143,-0.8803253,1015.606,39.39549,-0.3769531, -0.01464844, -0.887207, 0.002500057, -0.2259374, 0.05718756,147.3087,5,4,True,True,122
38600,-3.209913,-3.479683,1015.702,39.39093,-0.3779297, -0.01757813, -0.887207, 0.01812506, -0.1946874, 0.1665626,147.3087,5,4,True,True,122
38736,-2.79893,-2.387947,1015.661,39.37724,-0.3759766, -0.015625, -0.8881836, 0.002500057, -0.1946874, 0.05718756,147.3087,5,4,True,True,122
38818,-2.888032,-2.977135,1015.683,-1,-0.3764648, -0.015625, -0.8891602, 0.04937506, -0.1634374, 0.1040626,147.3087,5,4,True,True,122
38991,-3.374474,-3.860916,1015.715,-1,-0.3759766, -0.01757813, -0.887207, 0.06500006, -0.1790624, 0.1040626,147.3087,5,4,True,True,122
39053,-2.603947,-1.83342,1015.641,-1,-0.3754883, -0.01416016, -0.887207, -0.04437494, -0.2259374, 0.05718756,147.3087,5,4,True,True,122
39128,-1.811453,-1.018959,1015.611,-1,-0.3769531, -0.01513672, -0.887207, 0.08062506, -0.2103124, 0.1040626,147.3087,5,4,True,True,122
39197,-2.125693,-2.439934,1015.663,-1,-0.3754883, -0.01660156, -0.8852539, 0.002500057, -0.1478124, 0.07281256,147.3087,5,4,True,True,122
39267,-2.144184,-2.162674,1015.653,39.34987,-0.3759766, -0.01464844, -0.8881836, -0.02874994, -0.1634374, 0.08843756,147.3087,5,4,True,True,122
39336,-3.00255,-3.860916,1015.715,-1,-0.3774414, -0.015625, -0.8876953, -0.01312494, -0.2103124, 0.07281256,147.3087,5,4,True,True,122
39406,-4.298184,-5.593819,1015.779,39.34987,-0.3759766, -0.01660156, -0.887207, 0.04937506, -0.1165624, 0.08843756,147.3087,5,4,True,True,122
39478,-3.802287,-3.306389,1015.695,39.33162,-0.3764648, -0.01757813, -0.8867188, 0.03375006, -0.1946874, 0.08843756,147.3087,5,4,True,True,122
39549,-2.575246,-1.348206,1015.623,-1,-0.3769531, -0.01708984, -0.887207, 0.01812506, -0.1634374, 0.07281256,147.3087,5,4,True,True,122
39622,-3.668635,-4.762024,1015.749,-1,-0.3769531, -0.015625, -0.8862305, 0.01812506, -0.1321874, 0.05718756,147.3087,5,4,True,True,122
39694,-3.080281,-2.491928,1015.665,-1,-0.375, -0.015625, -0.8862305, 0.002500057, -0.1946874, 0.1665626,147.3087,5,4,True,True,122
39764,-3.080695,-3.081108,1015.687,-1,-0.3769531, -0.01660156, -0.8833008, 0.03375006, -0.1634374, 0.1353126,147.3087,5,4,True,True,122
39949,-2.509044,-1.937393,1015.645,-1,-0.3754883, -0.01757813, -0.887207, 0.04937506, -0.1790624, 0.05718756,147.3087,5,4,True,True,122
40023,-3.098337,-3.68763,1015.709,-1,-0.3759766, -0.01806641, -0.8862305, -0.02874994, -0.1790624, 0.07281256,147.3087,5,4,True,True,122
40098,-2.543858,-1.98938,1015.647,39.30425,-0.3759766, -0.01611328, -0.8837891, 0.002500057, -0.1634374, 0.04156256,147.3087,5,4,True,True,122
40174,-3.704932,-4.866005,1015.752,-1,-0.3745117, -0.01513672, -0.8857422, 0.01812506, -0.1321874, 0.08843756,147.3087,5,4,True,True,122
40249,-4.146834,-4.588737,1015.742,-1,-0.3754883, -0.01660156, -0.8837891, -0.01312494, -0.1634374, 0.08843756,147.3087,5,4,True,True,122
40325,-2.279638,-0.4124413,1015.589,-1,-0.3764648, -0.01416016, -0.8867188, -0.01312494, -0.2103124, 0.05718756,147.3087,5,4,True,True,122
40404,-2.481089,-2.682541,1015.672,39.24951,-0.3754883, -0.01660156, -0.887207, 0.002500057, -0.2571874, 0.07281256,147.3087,5,4,True,True,122
40482,-2.607809,-2.734528,1015.674,-1,-0.3754883, -0.01513672, -0.8852539, 0.01812506, -0.1478124, 0.07281256,147.3087,5,4,True,True,122
40562,-4.109481,-5.611153,1015.78,-1,-0.3759766, -0.015625, -0.8876953, -0.04437494, -0.1478124, 0.05718756,147.3087,5,4,True,True,122
40645,-3.447998,-2.786514,1015.676,39.22213,-0.3745117, -0.01464844, -0.8862305, 0.01812506, -0.1946874, 0.07281256,147.3087,5,4,True,True,122
40727,-2.839992,-2.231987,1015.656,-1,-0.375, -0.015625, -0.8852539, -0.01312494, -0.2571874, 0.1353126,147.3087,5,4,True,True,122
40811,-3.107847,-3.375702,1015.698,39.21758,-0.3764648, -0.015625, -0.8857422, 0.01812506, -0.2103124, 0.07281256,147.3087,5,4,True,True,122
41003,-1.968093,-0.8283386,1015.604,-1,-0.3754883, -0.01513672, -0.8842773, 0.002500057, -0.2415624, 0.07281256,147.3087,5,4,True,True,122
41087,-1.415546,-0.862999,1015.606,-1,-0.3769531, -0.01660156, -0.8847656, 0.01812506, -0.2103124, 0.08843756,147.3087,5,4,True,True,122
41171,-2.421617,-3.427689,1015.699,39.20388,-0.3759766, -0.01611328, -0.8857422, 0.01812506, -0.2259374, 0.07281256,147.3087,5,4,True,True,122
41257,-1.919572,-1.417526,1015.626,39.19933,-0.3759766, -0.01660156, -0.8833008, -0.02874994, -0.1634374, 0.08843756,147.3087,5,4,True,True,122
41392,-1.529915,-1.140259,1015.616,-1,-0.3769531, -0.01757813, -0.8828125, 0.002500057, -0.1634374, 0.07281256,147.3087,5,4,True,True,122
41457,-3.31926,-5.108604,1015.761,-1,-0.3759766, -0.01611328, -0.8847656, 0.002500057, -0.1478124, 0.08843756,147.3087,5,4,True,True,122
41522,-2.394386,-1.469513,1015.628,-1,-0.3759766, -0.01513672, -0.8862305, 0.01812506, -0.1790624, 0.07281256,147.3087,5,4,True,True,122
41588,-2.20055,-2.006714,1015.647,39.19933,-0.3759766, -0.01855469, -0.8837891, -0.01312494, -0.2259374, 0.08843756,147.3087,5,4,True,True,122
41654,-2.536856,-2.873161,1015.679,-1,-0.3740234, -0.01464844, -0.8842773, -0.01312494, -0.1946874, 0.05718756,147.3087,5,4,True,True,122
41723,-2.436408,-2.33596,1015.66,39.18564,-0.3754883, -0.01611328, -0.8837891, 0.03375006, -0.1321874, 0.05718756,147.3087,5,4,True,True,122
41788,-1.814327,-1.192245,1015.618,-1,-0.3745117, -0.01660156, -0.8803711, 0.03375006, -0.2259374, 0.08843756,147.3087,5,4,True,True,122
41858,-1.936514,-2.058701,1015.649,-1,-0.3769531, -0.01611328, -0.8837891, -0.01312494, -0.1790624, 0.04156256,147.3087,5,4,True,True,122
42039,-2.16223,-2.387947,1015.661,39.16283,-0.375, -0.01416016, -0.8857422, 0.002500057, -0.2259374, 0.1196876,147.3087,5,4,True,True,122
42108,-1.703231,-1.244232,1015.619,39.16739,-0.3754883, -0.01660156, -0.8852539, 0.002500057, -0.1634374, 0.08843756,147.3087,5,4,True,True,122
42179,-1.196468,-0.6897049,1015.599,-1,-0.3759766, -0.01660156, -0.8842773, -0.01312494, -0.1634374, 0.02593756,147.3087,5,4,True,True,122
42259,-2.381395,-3.566322,1015.705,-1,-0.375, -0.01513672, -0.887207, 0.002500057, -0.1946874, 0.05718756,147.3087,5,4,True,True,122
42334,-2.402001,-2.422607,1015.663,-1,-0.375, -0.015625, -0.8833008, 0.002500057, -0.2103124, 0.1040626,147.3087,5,4,True,True,122
42406,-0.8700204,0.6619606,1015.549,-1,-0.3769531, -0.01708984, -0.8842773, 0.002500057, -0.1634374, 0.1040626,147.3087,5,4,True,True,122
42481,-0.8318493,-0.7936783,1015.603,-1,-0.3745117, -0.01513672, -0.8852539, 0.03375006, -0.1946874, 0.08843756,147.3087,5,4,True,True,122
42556,-1.679215,-2.526581,1015.667,-1,-0.3769531, -0.01416016, -0.8852539, -0.02874994, -0.1009374, 0.1040626,147.3087,5,4,True,True,122
42632,-3.23795,-4.796684,1015.75,-1,-0.375, -0.01464844, -0.8857422, 0.01812506, -0.1946874, 0.1353126,147.3087,5,4,True,True,122
42710,-1.46995,0.2980499,1015.563,39.09439,-0.375, -0.01611328, -0.8857422, -0.02874994, -0.1478124, 0.08843756,147.3087,5,4,True,True,122
42788,-2.864717,-4.259483,1015.73,-1,-0.3754883, -0.01660156, -0.8857422, -0.01312494, -0.1946874, 0.05718756,147.3087,5,4,True,True,122
42866,-3.42347,-3.982224,1015.72,39.09439,-0.375, -0.015625, -0.8867188, -0.01312494, -0.1321874, 0.1040626,147.3087,5,4,True,True,122
43052,-1.29411,0.8352509,1015.543,-1,-0.3764648, -0.01416016, -0.8862305, 0.01812506, -0.2103124, 0.1353126,147.3087,5,4,True,True,122
43133,-2.369566,-3.445023,1015.7,39.08071,-0.3754883, -0.01513672, -0.8852539, 0.002500057, -0.1634374, 0.07281256,147.3087,5,4,True,True,122
43211,-2.066836,-1.764107,1015.638,39.07615,-0.3745117, -0.01513672, -0.8862305, 0.04937506, -0.1321874, 0.07281256,147.3087,5,4,True,True,122
43289,-1.776838,-1.486839,1015.628,-1,-0.3759766, -0.01660156, -0.8847656, 0.03375006, -0.1946874, 0.1040626,147.3087,5,4,True,True,122
43372,-1.796466,-1.816093,1015.64,39.0579,-0.3754883, -0.01513672, -0.8833008, -0.02874994, -0.1790624, 0.1196876,147.3087,5,4,True,True,122
43454,-2.369474,-2.942482,1015.682,-1,-0.3764648, -0.01660156, -0.887207, 0.04937506, -0.1634374, 0.07281256,147.3087,5,4,True,True,122
43538,-1.945487,-1.5215,1015.63,39.0579,-0.3745117, -0.01757813, -0.8876953, 0.08062506, -0.1009374, 0.08843756,147.3087,5,4,True,True,122
43618,-2.305351,-2.665215,1015.672,-1,-0.3754883, -0.01660156, -0.8833008, 0.03375006, -0.1946874, 0.02593756,147.3087,5,4,True,True,122
43703,-3.490368,-4.675385,1015.745,-1,-0.3745117, -0.01611328, -0.8847656, 0.04937506, -0.2415624, 0.05718756,147.3087,5,4,True,True,122
43840,-2.809191,-2.128014,1015.652,-1,-0.3754883, -0.01708984, -0.8852539, 0.03375006, -0.1790624, 0.05718756,147.3087,5,4,True,True,122
43904,-3.335053,-3.860916,1015.715,39.03052,-0.3754883, -0.015625, -0.8867188, 0.01812506, -0.1946874, 0.07281256,147.3087,5,4,True,True,122
43970,-3.329384,-3.323715,1015.695,39.02596,-0.3745117, -0.01513672, -0.8857422, 0.08062506, -0.2259374, 0.1040626,147.3087,5,4,True,True,122
44166,-3.482514,-3.635643,1015.707,-1,-0.3764648, -0.01513672, -0.8862305, 0.01812506, -0.2415624, 0.1353126,147.3087,5,4,True,True,122
44232,-1.869495,-0.2564774,1015.583,-1,-0.3764648, -0.01611328, -0.8876953, 0.03375006, -0.2259374, 0.1509376,147.3087,5,4,True,True,122
44300,-1.938105,-2.006714,1015.647,38.97578,-0.3769531, -0.01464844, -0.887207, 0.04937506, -0.1790624, 0.1040626,147.3087,5,4,True,True,122
44366,-1.556512,-1.174919,1015.617,-1,-0.3759766, -0.01660156, -0.8886719, 0.002500057, -0.1790624, 0.1040626,147.3087,5,4,True,True,122
44432,-1.824933,-2.093353,1015.65,-1,-0.3754883, -0.01513672, -0.887207, -0.02874994, -0.2415624, 0.07281256,147.3087,5,4,True,True,122
44501,-0.815428,0.1940765,1015.567,-1,-0.375, -0.01660156, -0.8876953, -0.02874994, -0.1946874, 0.1040626,147.3087,5,4,True,True,122
44571,-1.324424,-1.83342,1015.641,38.93928,-0.3759766, -0.01660156, -0.8876953, 0.04937506, -0.1634374, 0.05718756,147.3087,5,4,True,True,122
44643,-1.873516,-2.422607,1015.662,-1,-0.3764648, -0.01611328, -0.8891602, 0.01812506, -0.1790624, 0.07281256,147.3087,5,4,True,True,122
44716,-2.711256,-3.548996,1015.704,38.93015,-0.375, -0.01464844, -0.8867188, -0.02874994, -0.1790624, 0.07281256,147.3087,5,4,True,True,122
44789,-2.012404,-1.313553,1015.622,-1,-0.3764648, -0.01611328, -0.887207, -0.01312494, -0.1946874, 0.1196876,147.3087,5,4,True,True,122
44862,-2.104869,-2.197334,1015.654,-1,-0.3759766, -0.01513672, -0.8881836, 0.04937506, -0.1946874, 0.05718756,147.3087,5,4,True,True,122
44934,-0.8687513,0.3673668,1015.56,-1,-0.3745117, -0.01708984, -0.8881836, 0.04937506, -0.1634374, 0.1040626,147.3087,5,4,True,True,122
45119,-0.8225516,-0.7763519,1015.602,-1,-0.3764648, -0.015625, -0.8896484, -0.02874994, -0.1946874, 0.1040626,147.3087,5,4,True,True,122
45193,-2.506361,-4.19017,1015.727,38.90734,-0.3745117, -0.01708984, -0.8857422, 0.06500006, -0.2103124, 0.08843756,147.3087,5,4,True,True,122
45270,-1.779986,-1.053612,1015.612,-1,-0.375, -0.01611328, -0.8857422, 0.03375006, -0.1946874, 0.08843756,147.3087,5,4,True,True,122
45354,-1.98866,-2.197334,1015.654,-1,-0.3745117, -0.015625, -0.8852539, 0.03375006, -0.1478124, 0.05718756,147.3087,5,4,True,True,122
45432,-2.361594,-2.734528,1015.674,38.91647,-0.3745117, -0.01611328, -0.8852539, 0.04937506, -0.2259374, 0.07281256,147.3087,5,4,True,True,122
45511,-1.568973,-0.7763519,1015.602,-1,-0.3745117, -0.01464844, -0.8876953, 0.01812506, -0.1478124, 0.1040626,147.3087,5,4,True,True,122
45588,-2.879572,-4.19017,1015.727,-1,-0.3764648, -0.015625, -0.8833008, 0.04937506, -0.1946874, 0.1040626,147.3087,5,4,True,True,122
45667,-2.261186,-1.642799,1015.634,-1,-0.3759766, -0.01855469, -0.8852539, 0.08062506, -0.2259374, 0.1040626,147.3087,5,4,True,True,122
45746,-1.111537,0.03811264,1015.572,-1,-0.3759766, -0.01513672, -0.8852539, -0.01312494, -0.1165624, 0.05718756,147.3087,5,4,True,True,122
45827,-2.81548,-4.519424,1015.739,-1,-0.3754883, -0.01757813, -0.8847656, 0.002500057, -0.1946874, 0.07281256,147.3087,5,4,True,True,122
45910,-2.09051,-1.36554,1015.624,38.89365,-0.375, -0.01513672, -0.8862305, -0.01312494, -0.1478124, 0.1196876,147.3087,5,4,True,True,122
45996,-1.320791,-0.5510712,1015.594,38.88909,-0.3745117, -0.01611328, -0.8862305, 0.06500006, -0.2571874, 0.05718756,147.3087,5,4,True,True,122
46190,-1.369158,-1.417526,1015.625,-1,-0.3745117, -0.01611328, -0.8867188, 0.01812506, -0.2103124, 0.1040626,147.3087,5,4,True,True,122
46275,-1.826566,-2.283974,1015.657,-1,-0.3754883, -0.01611328, -0.8867188, 0.03375006, -0.1946874, 0.07281256,147.3087,5,4,True,True,122
46361,-3.328955,-4.831345,1015.751,38.8754,-0.3745117, -0.01660156, -0.8857422, 0.01812506, -0.1634374, 0.07281256,147.3087,5,4,True,True,122
46497,-3.239692,-3.150429,1015.689,38.86628,-0.3745117, -0.01660156, -0.887207, -0.04437494, -0.1478124, 0.1040626,147.3087,5,4,True,True,122
46561,-2.354602,-1.469513,1015.627,38.86628,-0.3735352, -0.015625, -0.8833008, -0.02874994, -0.1790624, 0.07281256,147.3087,5,4,True,True,122
46626,-2.613882,-2.873161,1015.679,-1,-0.3759766, -0.01611328, -0.8852539, -0.01312494, -0.2571874, 0.1040626,147.3087,5,4,True,True,122
46692,-2.908149,-3.202415,1015.691,-1,-0.3754883, -0.01708984, -0.8847656, 0.04937506, -0.1478124, 0.07281256,147.3087,5,4,True,True,122
46758,-3.055282,-3.202415,1015.691,-1,-0.3754883, -0.01611328, -0.8842773, 0.03375006, -0.2728124, 0.1353126,147.3087,5,4,True,True,122
46827,-3.579403,-4.103523,1015.724,38.82978,-0.375, -0.015625, -0.8833008, -0.01312494, -0.1634374, 0.05718756,147.3087,5,4,True,True,122
46895,-2.290514,-1.001625,1015.611,-1,-0.3764648, -0.01513672, -0.8862305, 0.002500057, -0.1946874, 0.07281256,147.3087,5,4,True,True,122
46963,-1.377471,-0.4644279,1015.591,-1,-0.3759766, -0.015625, -0.8857422, 0.04937506, -0.1946874, 0.07281256,147.3087,5,4,True,True,122
47029,-2.203296,-3.029121,1015.685,-1,-0.375, -0.01660156, -0.8837891, -0.04437494, -0.1634374, 0.07281256,147.3087,5,4,True,True,122
47208,-3.34403,-4.484764,1015.738,38.79784,-0.3754883, -0.015625, -0.8852539, 0.04937506, -0.1165624, 0.1040626,147.3087,5,4,True,True,122
47278,-2.060191,-0.7763519,1015.602,-1,-0.375, -0.015625, -0.8862305, 0.002500057, -0.1634374, 0.04156256,147.3087,5,4,True,True,122
47348,-2.85658,-3.652969,1015.708,-1,-0.375, -0.01660156, -0.8847656, -0.02874994, -0.1165624, 0.07281256,147.3087,5,4,True,True,122
47421,-3.116141,-3.375702,1015.698,-1,-0.3745117, -0.01464844, -0.8867188, 0.03375006, -0.1790624, 0.07281256,147.3087,5,4,True,True,122
47491,-2.977325,-2.838509,1015.678,-1,-0.3754883, -0.01416016, -0.8847656, 0.002500057, -0.1478124, 0.1040626,147.3087,5,4,True,True,122
47564,-2.630649,-2.283974,1015.658,-1,-0.3754883, -0.015625, -0.8837891, 0.01812506, -0.1321874, 0.08843756,147.3087,5,4,True,True,122
47635,-2.318682,-2.006714,1015.648,-1,-0.3745117, -0.01416016, -0.8862305, -0.01312494, -0.1946874, 0.05718756,147.3087,5,4,True,True,122
47710,-2.032727,-1.746773,1015.638,-1,-0.3740234, -0.01367188, -0.8837891, -0.02874994, -0.1946874, 0.1040626,147.3087,5,4,True,True,122
47790,-1.88975,-1.746773,1015.638,38.75678,-0.375, -0.01513672, -0.8862305, 0.01812506, -0.1946874, 0.07281256,147.3087,5,4,True,True,122
47868,-1.818261,-1.746773,1015.638,-1,-0.3764648, -0.01611328, -0.8833008, 0.002500057, -0.1478124, 0.07281256,147.3087,5,4,True,True,122
47946,-1.219325,-0.620388,1015.596,-1,-0.3754883, -0.01708984, -0.8852539, 0.002500057, -0.1634374, 0.04156256,147.3087,5,4,True,True,122
48025,-2.626767,-4.03421,1015.722,38.74309,-0.3759766, -0.015625, -0.8852539, 0.04937506, -0.1790624, 0.1196876,147.3087,5,4,True,True,122
48214,-2.04814,-1.469513,1015.628,-1,-0.375, -0.01513672, -0.8837891, 0.04937506, -0.1634374, 0.05718756,147.3087,5,4,True,True,122
48294,-2.469318,-2.890495,1015.68,-1,-0.3754883, -0.01416016, -0.8847656, -0.02874994, -0.1946874, 0.08843756,147.3087,5,4,True,True,122
48374,-0.9903236,0.4886703,1015.556,-1,-0.3759766, -0.01611328, -0.8857422, -0.04437494, -0.1321874, 0.1353126,147.3087,5,4,True,True,122
48454,-0.9613178,-0.932312,1015.608,-1,-0.375, -0.01611328, -0.8818359, -0.05999994, -0.1478124, 0.07281256,147.3087,5,4,True,True,122
48543,-2.2205,-3.479683,1015.701,-1,-0.3730469, -0.01513672, -0.8842773, 0.01812506, -0.1634374, 0.07281256,147.3087,5,4,True,True,122
48627,-1.299141,-0.3777809,1015.588,38.7294,-0.3754883, -0.01757813, -0.8857422, 0.01812506, -0.1634374, 0.07281256,147.3087,5,4,True,True,122
48709,-1.540287,-1.781433,1015.639,-1,-0.3759766, -0.015625, -0.8857422, 0.01812506, -0.1634374, 0.04156256,147.3087,5,4,True,True,122
48810,-2.258711,-2.977135,1015.683,-1,-0.375, -0.01806641, -0.8828125, -0.01312494, -0.1634374, 0.07281256,147.3087,5,4,True,True,122
48893,-2.323329,-2.387947,1015.661,38.71115,-0.3754883, -0.01318359, -0.8847656, 0.04937506, -0.1321874, 0.1040626,147.3087,5,4,True,True,122
49026,-1.237916,-0.152504,1015.579,-1,-0.375, -0.01611328, -0.8833008, 0.04937506, -0.2103124, 0.08843756,147.3087,5,4,True,True,122
49094,-2.558083,-3.87825,1015.716,38.68834,-0.3764648, -0.01660156, -0.8876953, -0.02874994, -0.1946874, 0.07281256,147.3087,5,4,True,True,122
49159,-2.221745,-1.885406,1015.643,38.68834,-0.3754883, -0.01416016, -0.8862305, 0.002500057, -0.1478124, 0.1196876,147.3087,5,4,True,True,122
49336,-2.34817,-2.474594,1015.665,-1,-0.3745117, -0.015625, -0.8837891, 0.002500057, -0.1321874, 0.05718756,147.3087,5,4,True,True,122
49404,-1.865518,-1.382866,1015.624,38.67921,-0.3759766, -0.01611328, -0.8813477, 0.04937506, -0.2415624, 0.08843756,147.3087,5,4,True,True,122
49472,-1.762825,-1.660133,1015.635,-1,-0.3759766, -0.01660156, -0.8833008, 0.002500057, -0.1946874, 0.08843756,147.3087,5,4,True,True,122
49540,-1.850109,-1.937393,1015.644,-1,-0.3740234, -0.015625, -0.8876953, 0.002500057, -0.2259374, 0.1040626,147.3087,5,4,True,True,122
49610,-1.911081,-1.972054,1015.646,38.67009,-0.3740234, -0.01660156, -0.8867188, -0.02874994, -0.1634374, 0.07281256,147.3087,5,4,True,True,122
49681,-1.378373,-0.845665,1015.604,38.6564,-0.3740234, -0.015625, -0.8857422, -0.01312494, -0.1634374, 0.04156256,147.3087,5,4,True,True,122
49751,-1.97847,-2.578568,1015.668,-1,-0.3759766, -0.01611328, -0.8852539, 0.01812506, -0.2103124, 0.1196876,147.3087,5,4,True,True,122
49822,-2.408489,-2.838509,1015.678,38.65184,-0.3754883, -0.01757813, -0.8857422, 0.002500057, -0.1321874, 0.1040626,147.3087,5,4,True,True,122
49893,-2.077631,-1.746773,1015.638,-1,-0.3745117, -0.01318359, -0.8847656, 0.01812506, -0.1634374, 0.08843756,147.3087,5,4,True,True,122
49967,-2.189469,-2.301308,1015.658,38.63815,-0.3745117, -0.01611328, -0.887207, 0.01812506, -0.1165624, 0.08843756,147.3087,5,4,True,True,122
50041,-0.8330712,0.5233269,1015.554,38.63815,-0.3764648, -0.01513672, -0.8847656, 0.01812506, -0.1790624, 0.1196876,147.3087,5,4,True,True,122
50117,-3.291425,-5.749779,1015.785,-1,-0.375, -0.015625, -0.8857422, 0.03375006, -0.1946874, 0.1040626,147.3087,5,4,True,True,122
50305,-3.116953,-2.942482,1015.681,-1,-0.3754883, -0.01611328, -0.8857422, 0.01812506, -0.1946874, 0.07281256,147.3087,5,4,True,True,122
50379,-2.024633,-0.932312,1015.608,-1,-0.3759766, -0.01708984, -0.8867188, -0.02874994, -0.1634374, 0.07281256,147.3087,5,4,True,True,122
50455,-1.209872,-0.3951111,1015.588,-1,-0.375, -0.01513672, -0.8842773, 0.002500057, -0.2103124, 0.08843756,147.3087,5,4,True,True,122
50533,-1.365686,-1.5215,1015.63,38.60165,-0.3754883, -0.01660156, -0.8862305, 0.01812506, -0.2103124, 0.1040626,147.3087,5,4,True,True,122
50609,-1.469586,-1.573486,1015.631,-1,-0.3745117, -0.015625, -0.8852539, -0.02874994, -0.1946874, 0.07281256,147.3087,5,4,True,True,122
50685,-1.928766,-2.387947,1015.661,-1,-0.375, -0.015625, -0.8857422, 0.03375006, -0.2103124, 0.1040626,147.3087,5,4,True,True,122
50761,-1.88976,-1.850754,1015.641,-1,-0.375, -0.01464844, -0.8857422, -0.02874994, -0.1634374, 0.04156256,147.3087,5,4,True,True,122
50840,-2.164847,-2.439934,1015.663,-1,-0.375, -0.01660156, -0.8852539, 0.06500006, -0.1321874, 0.08843756,147.3087,5,4,True,True,122
50920,-1.591903,-1.018959,1015.611,-1,-0.375, -0.01416016, -0.8857422, 0.002500057, -0.1634374, 0.05718756,147.3087,5,4,True,True,122
51000,-2.171882,-2.751862,1015.675,-1,-0.375, -0.01660156, -0.8852539, -0.01312494, -0.06968737, 0.07281256,147.3087,5,4,True,True,122
51082,-1.318155,-0.4644279,1015.591,-1,-0.3759766, -0.01464844, -0.8862305, -0.02874994, -0.1946874, 0.1040626,147.3087,5,4,True,True,122
51165,-0.6226911,0.07277298,1015.571,38.56971,-0.375, -0.01611328, -0.8852539, 0.01812506, -0.2259374, 0.07281256,147.3087,5,4,True,True,122
51357,-0.5955462,-0.5684013,1015.595,-1,-0.3745117, -0.01513672, -0.8847656, 0.002500057, -0.1321874, 0.08843756,147.3087,5,4,True,True,122
51438,-1.448427,-2.301308,1015.658,-1,-0.3740234, -0.01611328, -0.8867188, 0.01812506, -0.1946874, 0.08843756,147.3087,5,4,True,True,122
51572,-1.5976,-1.746773,1015.638,38.52864,-0.3759766, -0.015625, -0.8886719, 0.04937506, -0.2103124, 0.04156256,147.3087,5,4,True,True,122
51634,-2.244048,-2.890495,1015.68,-1,-0.3754883, -0.01806641, -0.8867188, 0.002500057, -0.1009374, 0.07281256,147.3087,5,4,True,True,122
51707,-2.428638,-2.613228,1015.67,38.51952,-0.3754883, -0.01464844, -0.8862305, -0.01312494, -0.2103124, 0.05718756,147.3087,5,4,True,True,122
51774,-0.5454231,1.337791,1015.524,-1,-0.3745117, -0.01660156, -0.8881836, 0.01812506, -0.1478124, 0.05718756,147.3087,5,4,True,True,122
51839,-0.6002338,-0.6550446,1015.598,-1,-0.375, -0.01660156, -0.887207, 0.04937506, -0.1478124, 0.07281256,147.3087,5,4,True,True,122
51907,-1.49409,-2.387947,1015.661,-1,-0.3759766, -0.01611328, -0.8862305, -0.02874994, -0.1790624, 0.02593756,147.3087,5,4,True,True,122
51974,-0.5287034,0.4366837,1015.558,-1,-0.3740234, -0.01464844, -0.8881836, 0.01812506, -0.1165624, 0.05718756,147.3087,5,4,True,True,122
52042,-0.6438607,-0.7590179,1015.601,-1,-0.3754883, -0.01660156, -0.8911133, 0.002500057, -0.1946874, 0.07281256,147.3087,5,4,True,True,122
52114,0.4422756,1.528412,1015.518,-1,-0.3759766, -0.01464844, -0.8881836, -0.01312494, -0.2259374, 0.1353126,147.3087,5,4,True,True,122
52183,-2.151211,-4.744698,1015.748,-1,-0.3754883, -0.01953125, -0.890625, 0.03375006, -0.1478124, 0.1353126,147.3087,5,4,True,True,122
52365,-2.356226,-2.561241,1015.668,-1,-0.3759766, -0.015625, -0.8886719, -0.02874994, -0.1946874, 0.1196876,147.3087,5,4,True,True,122
52435,-1.323682,-0.2911377,1015.584,-1,-0.375, -0.01757813, -0.8876953, -0.05999994, -0.1634374, 0.05718756,147.3087,5,4,True,True,122
52505,-2.514319,-3.704956,1015.71,-1,-0.3745117, -0.01611328, -0.8881836, 0.002500057, -0.1321874, 0.07281256,147.3087,5,4,True,True,122
52579,-1.679992,-0.845665,1015.605,38.42369,-0.3754883, -0.01611328, -0.8891602, -0.04437494, -0.1946874, 0.08843756,147.3087,5,4,True,True,122
52655,-2.39788,-3.115768,1015.688,38.41457,-0.3745117, -0.01660156, -0.887207, 0.04937506, -0.1321874, 0.04156256,147.3087,5,4,True,True,122
52730,-2.21096,-2.02404,1015.648,-1,-0.3745117, -0.01513672, -0.8876953, 0.03375006, -0.1321874, 0.05718756,147.3087,5,4,True,True,122
52805,-0.9737834,0.2633934,1015.564,-1,-0.375, -0.01660156, -0.8886719, -0.01312494, -0.1321874, 0.1196876,147.3087,5,4,True,True,122
52882,-1.360278,-1.746773,1015.638,-1,-0.3745117, -0.01513672, -0.887207, -0.01312494, -0.1634374, 0.1196876,147.3087,5,4,True,True,122
52957,-1.414896,-1.469513,1015.628,-1,-0.375, -0.01513672, -0.8881836, -0.04437494, -0.1478124, 0.1196876,147.3087,5,4,True,True,122
53032,-2.308656,-3.202415,1015.691,-1,-0.3745117, -0.01708984, -0.8862305, 0.01812506, -0.08531237, 0.02593756,147.3087,5,4,True,True,122
53108,-1.343218,-0.3777809,1015.588,-1,-0.3745117, -0.01464844, -0.8857422, 0.002500057, -0.1165624, 0.08843756,147.3087,5,4,True,True,122
53187,-1.709623,-2.076027,1015.65,38.38263,-0.3759766, -0.01269531, -0.8867188, -0.01312494, -0.1321874, 0.04156256,147.3087,5,4,True,True,122
53377,-1.615561,-1.5215,1015.629,38.38263,-0.375, -0.01660156, -0.8862305, -0.02874994, -0.1321874, 0.08843756,147.3087,5,4,True,True,122
53458,-0.996671,-0.3777809,1015.588,-1,-0.3745117, -0.01513672, -0.8876953, 0.06500006, -0.1946874, 0.05718756,147.3087,5,4,True,True,122
53538,-1.259085,-1.5215,1015.629,-1,-0.3740234, -0.01513672, -0.8862305, 0.002500057, -0.2103124, 0.08843756,147.3087,5,4,True,True,122
53618,-1.684886,-2.110687,1015.651,-1,-0.3745117, -0.015625, -0.8876953, -0.02874994, -0.1790624, 0.05718756,147.3087,5,4,True,True,122
53718,-2.764238,-3.84359,1015.714,38.36894,-0.3745117, -0.01660156, -0.8886719, 0.002500057, -0.1009374, 0.1040626,147.3087,5,4,True,True,122
53802,-2.004235,-1.244232,1015.619,38.38719,-0.3754883, -0.01611328, -0.8881836, 0.03375006, -0.1321874, 0.07281256,147.3087,5,4,True,True,122
53885,-2.057461,-2.110687,1015.651,-1,-0.3759766, -0.01611328, -0.887207, 0.01812506, -0.1165624, 0.02593756,147.3087,5,4,True,True,122
53968,-1.806811,-1.55616,1015.631,-1,-0.3745117, -0.01464844, -0.8867188, 0.04937506, -0.1321874, 0.1040626,147.3087,5,4,True,True,122
54105,-2.547936,-3.289063,1015.695,38.35526,-0.3745117, -0.01611328, -0.8857422, -0.01312494, -0.1634374, 0.05718756,147.3087,5,4,True,True,122
54170,-1.506182,-0.4644279,1015.591,-1,-0.3754883, -0.01513672, -0.887207, -0.01312494, -0.1634374, 0.1040626,147.3087,5,4,True,True,122
54236,-2.692216,-3.87825,1015.716,-1,-0.3745117, -0.01708984, -0.887207, -0.02874994, -0.1790624, 0.1196876,147.3087,5,4,True,True,122
54299,-2.037541,-1.382866,1015.624,-1,-0.3745117, -0.01660156, -0.887207, 0.03375006, -0.2259374, 0.07281256,147.3087,5,4,True,True,122
54481,-0.7484419,0.540657,1015.554,38.28225,-0.3745117, -0.01464844, -0.8876953, 0.03375006, -0.1946874, 0.1353126,147.3087,5,4,True,True,122
54550,0.02607429,0.8005905,1015.544,38.29137,-0.3754883, -0.015625, -0.8886719, 0.01812506, -0.1321874, 0.05718756,147.3087,5,4,True,True,122
54618,-0.01989323,-0.06586075,1015.576,-1,-0.3759766, -0.01660156, -0.887207, 0.01812506, -0.1478124, 0.1040626,147.3087,5,4,True,True,122
54687,-0.4674395,-0.9149857,1015.607,-1,-0.3730469, -0.01611328, -0.8896484, 0.002500057, -0.1634374, 0.1040626,147.3087,5,4,True,True,122
54759,-0.2839783,-0.1005173,1015.578,-1,-0.3754883, -0.01806641, -0.8896484, -0.02874994, -0.1321874, 0.05718756,147.3087,5,4,True,True,122
54837,1.220068,2.724113,1015.474,38.25486,-0.3759766, -0.01660156, -0.8867188, 0.04937506, -0.2415624, 0.05718756,147.3087,5,4,True,True,122
54909,0.2651813,-0.6897049,1015.599,-1,-0.3745117, -0.01611328, -0.8847656, 0.03375006, -0.1321874, 0.07281256,147.3087,5,4,True,True,122
54981,-1.780541,-3.826263,1015.714,38.25486,-0.3745117, -0.01513672, -0.8867188, -0.02874994, -0.1946874, 0.07281256,147.3087,5,4,True,True,122
55053,-1.96294,-2.14534,1015.653,-1,-0.3740234, -0.01464844, -0.8881836, 0.01812506, -0.1165624, 0.1040626,147.3087,5,4,True,True,122
55125,-0.9450837,0.07277298,1015.571,-1,-0.3745117, -0.01757813, -0.887207, 0.002500057, -0.1478124, 0.05718756,147.3087,5,4,True,True,122
55198,-0.7307492,-0.5164146,1015.592,-1,-0.3740234, -0.01513672, -0.8901367, 0.002500057, -0.1165624, 0.04156256,147.3087,5,4,True,True,122
55273,-3.604175,-6.4776,1015.811,38.20924,-0.375, -0.01660156, -0.887207, -0.01312494, -0.1478124, 0.1040626,147.3087,5,4,True,True,122
55459,-2.346223,-1.088272,1015.614,-1,-0.3759766, -0.01757813, -0.8857422, -0.01312494, -0.1634374, 0.05718756,147.3087,5,4,True,True,122
55534,-1.717248,-1.088272,1015.614,-1,-0.375, -0.01513672, -0.8886719, -0.01312494, -0.1634374, 0.1196876,147.3087,5,4,True,True,122
55610,-1.567387,-1.417526,1015.626,-1,-0.3745117, -0.01660156, -0.8901367, -0.05999994, -0.1009374, 0.08843756,147.3087,5,4,True,True,122
55687,-0.9205973,-0.2738075,1015.584,-1,-0.3754883, -0.01464844, -0.8876953, 0.03375006, -0.1321874, 0.07281256,147.3087,5,4,True,True,122
55762,-2.598707,-4.276817,1015.731,-1,-0.3754883, -0.01660156, -0.8876953, 0.002500057, -0.1165624, 0.1040626,147.3087,5,4,True,True,122
55840,-2.302711,-2.006714,1015.647,38.18185,-0.3774414, -0.01611328, -0.8867188, -0.02874994, -0.1165624, 0.07281256,147.3087,5,4,True,True,122
55920,-1.019659,0.2633934,1015.564,38.17273,-0.3745117, -0.01611328, -0.8886719, 0.08062506, -0.1478124, 0.1040626,147.3087,5,4,True,True,122
56000,-1.244586,-1.469513,1015.627,38.17729,-0.3745117, -0.01660156, -0.8896484, -0.04437494, -0.1790624, 0.04156256,147.3087,5,4,True,True,122
56080,-2.058874,-2.873161,1015.679,-1,-0.3740234, -0.01757813, -0.8862305, 0.08062506, -0.08531237, 0.05718756,147.3087,5,4,True,True,122
56163,-1.48693,-0.9149857,1015.607,-1,-0.3754883, -0.015625, -0.8876953, -0.01312494, -0.1634374, 0.05718756,147.3087,5,4,True,True,122
56246,-2.474639,-3.462349,1015.701,-1,-0.3759766, -0.01513672, -0.8881836, -0.01312494, -0.1790624, 0.08843756,147.3087,5,4,True,True,122
56326,-3.107128,-3.739616,1015.711,-1,-0.3754883, -0.015625, -0.8876953, -0.01312494, -0.1009374, 0.05718756,147.3087,5,4,True,True,122
56522,-2.574247,-2.041367,1015.649,-1,-0.3745117, -0.01611328, -0.8862305, 0.002500057, -0.1634374, 0.08843756,147.3087,5,4,True,True,122
56608,-1.450021,-0.3257942,1015.586,38.17273,-0.375, -0.01708984, -0.8867188, 0.01812506, -0.1321874, 0.08843756,147.3087,5,4,True,True,122
56739,-0.1774182,1.095184,1015.534,-1,-0.3745117, -0.01708984, -0.8852539, 0.04937506, -0.1321874, 0.08843756,147.3087,5,4,True,True,122
56807,-0.5462019,-0.9149857,1015.607,38.16817,-0.375, -0.01611328, -0.887207, 0.03375006, -0.1478124, 0.07281256,147.3087,5,4,True,True,122
56873,-0.4533282,-0.3604546,1015.587,38.15448,-0.3735352, -0.01708984, -0.8857422, 0.04937506, -0.1321874, 0.07281256,147.3087,5,4,True,True,122
56938,-1.541941,-2.630554,1015.67,-1,-0.3745117, -0.015625, -0.8876953, 0.04937506, -0.1634374, 0.08843756,147.3087,5,4,True,True,122
57005,-0.9511978,-0.3604546,1015.587,-1,-0.3740234, -0.01708984, -0.8857422, -0.01312494, -0.1009374, 0.1040626,147.3087,5,4,True,True,122
57070,-1.790876,-2.630554,1015.67,-1,-0.3745117, -0.01708984, -0.8842773, 0.002500057, -0.1478124, 0.07281256,147.3087,5,4,True,True,122
57139,-2.782573,-3.774269,1015.712,38.14535,-0.3745117, -0.015625, -0.887207, 0.06500006, -0.1634374, 0.07281256,147.3087,5,4,True,True,122
57209,-2.437963,-2.093353,1015.65,-1,-0.375, -0.01660156, -0.887207, 0.03375006, -0.1321874, 0.1353126,147.3087,5,4,True,True,122
57279,-2.265658,-2.093353,1015.65,38.14535,-0.3745117, -0.01464844, -0.8833008, 0.01812506, -0.1478124, 0.08843756,147.3087,5,4,True,True,122
57349,-2.4741,-2.682541,1015.672,-1,-0.3745117, -0.01367188, -0.887207, 0.01812506, -0.1946874, 0.1040626,147.3087,5,4,True,True,122
57534,-0.3082187,1.857662,1015.505,38.14079,-0.375, -0.01660156, -0.8852539, 0.03375006, -0.1634374, 0.07281256,147.3087,5,4,True,True,122
57606,-0.9321894,-1.55616,1015.63,-1,-0.375, -0.015625, -0.8842773, 0.03375006, -0.1165624, 0.1040626,147.3087,5,4,True,True,122
57677,-2.379226,-3.826263,1015.714,-1,-0.3740234, -0.01660156, -0.8857422, 0.03375006, -0.1321874, 0.08843756,147.3087,5,4,True,True,122
57751,-2.825478,-3.271729,1015.694,-1,-0.3740234, -0.01660156, -0.8862305, 0.08062506, -0.1478124, 0.02593756,147.3087,5,4,True,True,122
57822,-2.754009,-2.682541,1015.672,-1,-0.375, -0.01660156, -0.8876953, 0.002500057, -0.1634374, 0.1040626,147.3087,5,4,True,True,122
57897,-3.584726,-4.415443,1015.736,-1,-0.3754883, -0.01513672, -0.8852539, 0.03375006, -0.1321874, 0.05718756,147.3087,5,4,True,True,122
57983,-2.015912,-0.4470978,1015.59,-1,-0.3745117, -0.01611328, -0.8862305, 0.002500057, -0.1634374, 0.07281256,147.3087,5,4,True,True,122
58057,-1.231505,-0.4470978,1015.59,38.11797,-0.3735352, -0.01611328, -0.8847656, 0.03375006, -0.1478124, 0.02593756,147.3087,5,4,True,True,122
58156,-1.428489,-1.625473,1015.634,38.10884,-0.375, -0.01708984, -0.8837891, 0.002500057, -0.1790624, 0.07281256,147.3087,5,4,True,True,122
58233,-1.830238,-2.231987,1015.655,-1,-0.3745117, -0.01660156, -0.8857422, 0.03375006, -0.1946874, 0.1196876,147.3087,5,4,True,True,122
58313,-2.87157,-3.912903,1015.717,38.09059,-0.375, -0.01806641, -0.8857422, -0.02874994, -0.1009374, 0.08843756,147.3087,5,4,True,True,122
58389,-1.841288,-0.8110046,1015.604,-1,-0.3754883, -0.01708984, -0.887207, 0.01812506, -0.1790624, 0.1196876,147.3087,5,4,True,True,122
58583,-0.9189157,0.003456116,1015.573,38.09059,-0.375, -0.01367188, -0.8867188, -0.02874994, -0.1321874, 0.04156256,147.3087,5,4,True,True,122
58664,-2.433239,-3.947563,1015.719,-1,-0.375, -0.01660156, -0.8852539, 0.01812506, -0.05406237, 0.08843756,147.3087,5,4,True,True,122
58745,-2.349943,-2.266647,1015.657,-1,-0.3754883, -0.01660156, -0.8837891, 0.03375006, -0.1478124, 0.07281256,147.3087,5,4,True,True,122
58826,-2.031032,-1.71212,1015.637,-1,-0.3754883, -0.01611328, -0.8852539, 0.04937506, -0.1009374, 0.08843756,147.3087,5,4,True,True,122
58905,-3.006628,-3.982224,1015.72,-1,-0.3730469, -0.01464844, -0.8862305, 0.01812506, -0.1321874, 0.1040626,147.3087,5,4,True,True,122
58986,-2.229403,-1.452179,1015.627,-1,-0.3759766, -0.01708984, -0.8842773, 0.03375006, -0.1946874, 0.07281256,147.3087,5,4,True,True,122
59072,-1.702161,-1.174919,1015.617,-1,-0.3769531, -0.01464844, -0.8833008, 0.01812506, -0.1634374, 0.07281256,147.3087,5,4,True,True,122
59206,-1.871764,-2.041367,1015.648,-1,-0.375, -0.01611328, -0.8837891, -0.02874994, -0.1478124, 0.1040626,147.3087,5,4,True,True,122
59273,-2.251159,-2.630554,1015.67,-1,-0.3745117, -0.01611328, -0.8852539, 0.002500057, -0.1321874, 0.1040626,147.3087,5,4,True,True,122
59335,-1.868999,-1.486839,1015.628,-1,-0.3754883, -0.01660156, -0.8881836, -0.01312494, -0.1165624, 0.1040626,147.3087,5,4,True,True,122
59401,-0.96743,-0.06586075,1015.576,-1,-0.375, -0.01464844, -0.8852539, -0.02874994, -0.1165624, 0.1040626,147.3087,5,4,True,True,122
59468,0.02055556,1.008541,1015.536,-1,-0.375, -0.01708984, -0.8847656, -0.02874994, -0.1478124, 0.1353126,147.3087,5,4,True,True,122
59647,-0.6205053,-1.261566,1015.62,38.01758,-0.375, -0.015625, -0.8867188, 0.002500057, -0.1165624, 0.1196876,147.3087,5,4,True,True,122
59713,-1.23563,-1.850754,1015.641,-1,-0.3754883, -0.01464844, -0.8847656, 0.01812506, -0.1165624, 0.08843756,147.3087,5,4,True,True,122
59782,-1.109964,-0.9842987,1015.61,-1,-0.3740234, -0.01708984, -0.8852539, 0.03375006, -0.05406237, 0.1040626,147.3087,5,4,True,True,122
59852,-1.185765,-1.261566,1015.62,38.02671,-0.3740234, -0.01660156, -0.8852539, 0.01812506, -0.1165624, 0.05718756,147.3087,5,4,True,True,122
59922,-3.788359,-6.390953,1015.808,-1,-0.3740234, -0.01611328, -0.8857422, 0.002500057, -0.2415624, 0.1665626,147.3087,5,4,True,True,122
59993,-2.386329,-0.9842987,1015.61,-1,-0.3759766, -0.01513672, -0.8842773, -0.01312494, -0.1634374, 0.07281256,147.3087,5,4,True,True,122
60063,-3.253589,-4.12085,1015.725,-1,-0.3754883, -0.01708984, -0.8857422, 0.01812506, -0.1321874, 0.08843756,147.3087,5,4,True,True,122
60133,-2.552171,-1.850754,1015.641,37.99476,-0.3754883, -0.01611328, -0.8847656, -0.01312494, -0.1478124, 0.1196876,147.3087,5,4,True,True,122
60205,-1.222371,0.1074295,1015.57,-1,-0.3745117, -0.015625, -0.8837891, -0.02874994, -0.1634374, 0.08843756,147.3087,5,4,True,True,122
60279,-1.831152,-2.439934,1015.663,37.99933,-0.3745117, -0.01708984, -0.8862305, 0.01812506, -0.1790624, 0.05718756,147.3087,5,4,True,True,122
60353,-2.993331,-4.15551,1015.726,-1,-0.375, -0.015625, -0.8852539, -0.02874994, -0.1946874, 0.02593756,147.3087,5,4,True,True,122
60429,-2.439369,-1.885406,1015.643,-1,-0.3745117, -0.01611328, -0.8842773, 0.06500006, -0.1790624, 0.05718756,147.3087,5,4,True,True,122
60616,-2.474312,-2.509254,1015.666,-1,-0.3754883, -0.01660156, -0.8886719, 0.002500057, -0.1165624, 0.05718756,147.3087,5,4,True,True,122
60691,-1.651325,-0.8283386,1015.604,-1,-0.3745117, -0.01513672, -0.8886719, -0.02874994, -0.1165624, 0.05718756,147.3087,5,4,True,True,122
60770,-0.9712314,-0.2911377,1015.585,-1,-0.3759766, -0.015625, -0.8876953, 0.002500057, -0.1321874, 0.05718756,147.3087,5,4,True,True,122
60846,-1.514966,-2.058701,1015.649,-1,-0.3759766, -0.015625, -0.8886719, -0.04437494, -0.08531237, 0.05718756,147.3087,5,4,True,True,122
60926,-2.220057,-2.925148,1015.681,37.91719,-0.3735352, -0.01660156, -0.8881836, 0.01812506, -0.1165624, 0.05718756,147.3087,5,4,True,True,122
61005,-4.279511,-6.338966,1015.806,37.91719,-0.3740234, -0.01611328, -0.887207, 0.01812506, -0.1321874, 0.07281256,147.3087,5,4,True,True,122
61094,-3.195099,-2.110687,1015.651,-1,-0.3745117, -0.01708984, -0.8867188, -0.01312494, -0.1946874, 0.1353126,147.3087,5,4,True,True,122
61173,-2.081036,-0.9669724,1015.609,-1,-0.3735352, -0.01708984, -0.887207, -0.01312494, -0.1321874, 0.07281256,147.3087,5,4,True,True,122
61257,-2.251822,-2.422607,1015.662,37.8898,-0.3745117, -0.01757813, -0.8876953, 0.04937506, -0.1790624, 0.1040626,147.3087,5,4,True,True,122
61341,-1.626723,-1.001625,1015.611,37.8898,-0.3759766, -0.015625, -0.8867188, -0.02874994, -0.1165624, 0.08843756,147.3087,5,4,True,True,122
61422,-2.024665,-2.422607,1015.662,-1,-0.3745117, -0.01464844, -0.8867188, 0.01812506, -0.1634374, 0.07281256,147.3087,5,4,True,True,122
61508,-2.085003,-2.14534,1015.652,37.8898,-0.375, -0.01513672, -0.8886719, -0.02874994, -0.1478124, 0.05718756,147.3087,5,4,True,True,122
61704,-3.250223,-4.415443,1015.736,-1,-0.3745117, -0.01660156, -0.8881836, -0.01312494, -0.1946874, 0.07281256,147.3087,5,4,True,True,122
61839,-3.564237,-3.87825,1015.716,-1,-0.3759766, -0.01708984, -0.8862305, 0.01812506, -0.1790624, 0.08843756,147.3087,5,4,True,True,122
61904,-3.443976,-3.323715,1015.696,37.86242,-0.3735352, -0.015625, -0.8876953, 0.01812506, -0.1478124, 0.04156256,147.3087,5,4,True,True,122
61969,-3.955703,-4.46743,1015.737,-1,-0.3745117, -0.015625, -0.887207, 0.04937506, -0.1634374, 0.07281256,147.3087,5,4,True,True,122
62036,-3.639709,-3.323715,1015.696,-1,-0.3745117, -0.01660156, -0.8857422, 0.01812506, -0.1634374, 0.08843756,147.3087,5,4,True,True,122
62102,-3.481712,-3.323715,1015.696,-1,-0.3759766, -0.01513672, -0.8862305, 0.04937506, -0.2103124, 0.1353126,147.3087,5,4,True,True,122
62170,-4.269165,-5.056618,1015.759,37.8533,-0.3754883, -0.01513672, -0.8857422, 0.03375006, -0.1478124, 0.1353126,147.3087,5,4,True,True,122
62240,-3.52784,-2.786514,1015.676,-1,-0.3745117, -0.01611328, -0.8867188, 0.002500057, -0.1321874, 0.08843756,147.3087,5,4,True,True,122
62310,-3.018547,-2.509254,1015.666,-1,-0.3730469, -0.01660156, -0.8862305, 0.03375006, -0.1478124, 0.1040626,147.3087,5,4,True,True,122
62380,-2.902531,-2.786514,1015.676,-1,-0.3754883, -0.01513672, -0.887207, 0.03375006, -0.2103124, 0.07281256,147.3087,5,4,True,True,122
62451,-2.844522,-2.786514,1015.676,-1,-0.3759766, -0.01708984, -0.8857422, 0.002500057, -0.1165624, 0.05718756,147.3087,5,4,True,True,122
62521,-3.81194,-4.779358,1015.749,-1,-0.3745117, -0.015625, -0.887207, 0.04937506, -0.1634374, 0.08843756,147.3087,5,4,True,True,122
62706,-3.879752,-3.947563,1015.719,37.83504,-0.3745117, -0.01855469, -0.887207, 0.03375006, -0.1009374, 0.1196876,147.3087,5,4,True,True,122
62777,-4.052291,-4.224831,1015.729,37.83504,-0.3720703, -0.01416016, -0.8852539, 0.002500057, -0.1009374, 0.05718756,147.3087,5,4,True,True,122
62852,-3.999927,-3.947563,1015.719,37.82592,-0.3740234, -0.01611328, -0.8857422, 0.04937506, -0.1634374, 0.04156256,147.3087,5,4,True,True,122
62943,-3.705145,-3.410362,1015.699,-1,-0.375, -0.01611328, -0.8867188, 0.03375006, -0.1165624, 0.1040626,147.3087,5,4,True,True,122
63019,-3.289153,-2.873161,1015.679,-1,-0.3740234, -0.01464844, -0.8862305, -0.04437494, -0.1634374, 0.04156256,147.3087,5,4,True,True,122
63093,-3.237121,-3.185089,1015.69,-1,-0.3740234, -0.01611328, -0.887207, 0.1118751, -0.1478124, 0.05718756,147.3087,5,4,True,True,122
63168,-2.500614,-1.764107,1015.638,-1,-0.3745117, -0.01513672, -0.8852539, 0.002500057, -0.2728124, 0.08843756,147.3087,5,4,True,True,122
63248,-2.704218,-2.907822,1015.68,37.79853,-0.3745117, -0.01611328, -0.8847656, -0.02874994, -0.1946874, 0.1040626,147.3087,5,4,True,True,122
63326,-3.507844,-4.31147,1015.732,-1,-0.375, -0.01611328, -0.8862305, 0.002500057, -0.2259374, 0.05718756,147.3087,5,4,True,True,122
63405,-3.771027,-4.03421,1015.722,-1,-0.375, -0.015625, -0.8867188, 0.03375006, -0.2259374, 0.1040626,147.3087,5,4,True,True,122
63480,-4.041248,-4.31147,1015.732,-1,-0.3745117, -0.01367188, -0.8867188, 0.03375006, -0.2415624, 0.1196876,147.3087,5,4,True,True,122
63560,-3.474535,-2.907822,1015.68,37.8031,-0.3759766, -0.01611328, -0.8862305, 0.04937506, -0.1009374, 0.05718756,147.3087,5,4,True,True,122
63751,-3.624402,-3.774269,1015.712,-1,-0.3745117, -0.01660156, -0.8876953, 0.03375006, -0.1478124, 0.07281256,147.3087,5,4,True,True,122
63831,-3.829306,-4.03421,1015.722,-1,-0.375, -0.01513672, -0.8833008, 0.03375006, -0.05406237, 0.1040626,147.3087,5,4,True,True,122
63911,-3.663158,-3.497009,1015.702,-1,-0.3730469, -0.01660156, -0.8847656, 0.06500006, -0.2415624, 0.08843756,147.3087,5,4,True,True,122
63995,-3.580083,-3.497009,1015.702,37.78941,-0.3774414, -0.01660156, -0.8881836, 0.01812506, -0.1946874, 0.1040626,147.3087,5,4,True,True,122
64078,-3.538546,-3.497009,1015.702,-1,-0.3759766, -0.01464844, -0.8896484, -0.02874994, -0.2259374, 0.05718756,147.3087,5,4,True,True,122
64161,-2.807287,-2.076027,1015.65,37.78941,-0.3754883, -0.01611328, -0.887207, 0.06500006, -0.1790624, 0.07281256,147.3087,5,4,True,True,122
64243,-2.31169,-1.816093,1015.64,-1,-0.3735352, -0.01513672, -0.8867188, 0.01812506, -0.1478124, 0.1196876,147.3087,5,4,True,True,122
64387,-3.21627,-4.12085,1015.725,37.75747,-0.3754883, -0.015625, -0.8867188, 0.03375006, -0.2259374, 0.07281256,147.3087,5,4,True,True,122
64451,-2.394878,-1.573486,1015.632,-1,-0.3745117, -0.01464844, -0.887207, 0.01812506, -0.1634374, 0.05718756,147.3087,5,4,True,True,122
64517,-1.984182,-1.573486,1015.632,37.7529,-0.3754883, -0.01611328, -0.887207, -0.01312494, -0.1946874, 0.08843756,147.3087,5,4,True,True,122
64584,-1.077008,-0.1698341,1015.58,-1,-0.3754883, -0.01708984, -0.887207, 0.002500057, -0.1946874, 0.1040626,147.3087,5,4,True,True,122
64652,-3.465384,-5.85376,1015.788,37.7529,-0.3740234, -0.01513672, -0.8847656, 0.01812506, -0.1478124, 0.1040626,147.3087,5,4,True,True,122
64830,-3.52452,-3.583656,1015.705,-1,-0.3754883, -0.01757813, -0.8857422, -0.05999994, -0.1165624, 0.07281256,147.3087,5,4,True,True,122
64899,-2.843597,-2.162674,1015.653,-1,-0.3754883, -0.015625, -0.8842773, 0.04937506, -0.1946874, 0.08843756,147.3087,5,4,True,True,122
64965,-2.641765,-2.439934,1015.663,-1,-0.3735352, -0.01611328, -0.8842773, 0.03375006, -0.1946874, 0.05718756,147.3087,5,4,True,True,122
65033,-2.835443,-3.029121,1015.685,-1,-0.3754883, -0.01513672, -0.8862305, 0.01812506, -0.1165624, 0.02593756,147.3087,5,4,True,True,122
65101,-2.932282,-3.029121,1015.685,-1,-0.3740234, -0.01611328, -0.8852539, -0.01312494, -0.1321874, 0.05718756,147.3087,5,4,True,True,122
65171,-1.568387,-0.2044907,1015.581,-1,-0.3735352, -0.01660156, -0.8847656, 0.03375006, -0.1790624, 0.05718756,147.3087,5,4,True,True,122
65244,-3.7284,-5.888412,1015.79,-1,-0.3745117, -0.01513672, -0.8867188, 0.08062506, -0.2259374, 0.1040626,147.3087,5,4,True,True,122
65316,-2.832896,-1.937393,1015.645,-1,-0.3754883, -0.01708984, -0.887207, 0.08062506, -0.1634374, 0.08843756,147.3087,5,4,True,True,122
65392,-4.092054,-5.351212,1015.77,-1,-0.375, -0.01611328, -0.8867188, -0.01312494, -0.2259374, 0.1040626,147.3087,5,4,True,True,122
65466,-2.763453,-1.434853,1015.626,-1,-0.375, -0.01416016, -0.887207, -0.02874994, -0.1790624, 0.1353126,147.3087,5,4,True,True,122
65541,-3.528799,-4.294144,1015.731,-1,-0.3730469, -0.01513672, -0.887207, 0.002500057, -0.1478124, 0.07281256,147.3087,5,4,True,True,122
65617,-3.365607,-3.202415,1015.691,-1,-0.3754883, -0.01611328, -0.8862305, -0.01312494, -0.1321874, 0.05718756,147.3087,5,4,True,True,122
65803,-1.59443,0.1767464,1015.567,-1,-0.3754883, -0.01464844, -0.8876953, 0.002500057, -0.2415624, 0.04156256,147.3087,5,4,True,True,122
65877,-3.394841,-5.195251,1015.764,-1,-0.3745117, -0.01513672, -0.887207, -0.01312494, -0.1634374, 0.07281256,147.3087,5,4,True,True,122
65952,-4.017783,-4.640724,1015.744,-1,-0.3745117, -0.01660156, -0.8876953, 0.01812506, -0.1790624, 0.07281256,147.3087,5,4,True,True,122
66032,-4.467887,-4.917992,1015.754,-1,-0.375, -0.01660156, -0.8867188, 0.002500057, -0.1946874, 0.1040626,147.3087,5,4,True,True,122
66112,-4.692939,-4.917992,1015.754,37.66163,-0.3745117, -0.01318359, -0.8886719, 0.03375006, -0.1321874, 0.05718756,147.3087,5,4,True,True,122
66192,-3.68774,-2.682541,1015.672,-1,-0.3754883, -0.01513672, -0.8886719, 0.002500057, -0.1634374, 0.07281256,147.3087,5,4,True,True,122
66273,-3.185141,-2.682541,1015.672,-1,-0.3759766, -0.015625, -0.887207, -0.01312494, -0.06968737, 0.1040626,147.3087,5,4,True,True,122
66354,-2.52661,-1.86808,1015.642,-1,-0.375, -0.01513672, -0.8852539, 0.04937506, -0.1321874, 0.05718756,147.3087,5,4,True,True,122
66435,-2.621906,-2.717201,1015.674,-1,-0.3745117, -0.01660156, -0.8852539, -0.02874994, -0.05406237, 0.07281256,147.3087,5,4,True,True,122
66517,-2.808187,-2.994469,1015.684,37.62512,-0.3759766, -0.01416016, -0.8862305, 0.01812506, -0.2103124, 0.07281256,147.3087,5,4,True,True,122
66603,-2.632728,-2.457268,1015.664,37.62968,-0.3745117, -0.01611328, -0.8857422, -0.02874994, -0.1165624, 0.07281256,147.3087,5,4,True,True,122
66684,-2.544998,-2.457268,1015.664,-1,-0.3745117, -0.01611328, -0.8857422, -0.01312494, -0.2728124, 0.08843756,147.3087,5,4,True,True,122
66881,-2.908363,-3.271729,1015.694,-1,-0.375, -0.015625, -0.8862305, 0.03375006, -0.1321874, 0.1196876,147.3087,5,4,True,True,122
67015,-3.38464,-3.860916,1015.715,37.62055,-0.3764648, -0.01660156, -0.8847656, -0.01312494, -0.1946874, 0.07281256,147.3087,5,4,True,True,122
67080,-3.917372,-4.450104,1015.737,-1,-0.3759766, -0.01611328, -0.8867188, 0.002500057, -0.1946874, 0.07281256,147.3087,5,4,True,True,122
67146,-2.771422,-1.625473,1015.634,37.6023,-0.3735352, -0.01660156, -0.8876953, 0.01812506, -0.1478124, 0.07281256,147.3087,5,4,True,True,122
67210,-4.199951,-5.628479,1015.78,-1,-0.375, -0.01708984, -0.8852539, 0.01812506, -0.1165624, 0.07281256,147.3087,5,4,True,True,122
67296,-3.501899,-2.803848,1015.677,-1,-0.3735352, -0.015625, -0.8867188, 0.06500006, -0.1321874, 0.04156256,147.3087,5,4,True,True,122
67365,-4.019325,-4.536751,1015.74,37.57948,-0.3745117, -0.01464844, -0.8867188, 0.06500006, -0.1634374, 0.04156256,147.3087,5,4,True,True,122
67441,-4.546638,-5.073952,1015.76,37.58404,-0.3754883, -0.01464844, -0.8847656, 0.002500057, -0.1946874, 0.05718756,147.3087,5,4,True,True,122
67512,-4.541695,-4.536751,1015.74,-1,-0.3730469, -0.01660156, -0.887207, -0.02874994, -0.1165624, 0.05718756,147.3087,5,4,True,True,122
67581,-3.698765,-2.855835,1015.678,37.56123,-0.3740234, -0.01660156, -0.8852539, 0.04937506, -0.1165624, 0.08843756,147.3087,5,4,True,True,122
67651,-4.698278,-5.697792,1015.783,37.55666,-0.3745117, -0.01611328, -0.8867188, 0.01812506, -0.1321874, 0.1040626,147.3087,5,4,True,True,122
67722,-3.092559,-1.486839,1015.628,-1,-0.375, -0.015625, -0.8857422, 0.03375006, -0.1478124, 0.08843756,147.3087,5,4,True,True,122
67907,-3.580711,-4.068863,1015.723,-1,-0.3740234, -0.01464844, -0.8857422, 0.01812506, -0.1946874, 0.1196876,147.3087,5,4,True,True,122
67978,-3.824787,-4.068863,1015.723,-1,-0.3774414, -0.01513672, -0.8862305, 0.04937506, -0.1478124, 0.05718756,147.3087,5,4,True,True,122
68050,-3.539595,-3.254402,1015.693,-1,-0.3740234, -0.01660156, -0.8876953, 0.01812506, -0.1165624, 0.07281256,147.3087,5,4,True,True,122
68123,-3.821559,-4.103523,1015.724,37.52471,-0.3759766, -0.01757813, -0.8867188, -0.01312494, -0.1165624, 0.07281256,147.3087,5,4,True,True,122
68199,-2.827489,-1.83342,1015.641,37.53384,-0.375, -0.01513672, -0.8852539, -0.01312494, -0.1790624, 0.08843756,147.3087,5,4,True,True,122
68275,-2.174495,-1.5215,1015.63,-1,-0.375, -0.01660156, -0.8862305, 0.002500057, -0.1321874, 0.05718756,147.3087,5,4,True,True,122
68355,-1.440763,-0.7070313,1015.599,37.52471,-0.3745117, -0.01708984, -0.8867188, 0.002500057, -0.1165624, 0.08843756,147.3087,5,4,True,True,122
68434,-2.347583,-3.254402,1015.693,37.52928,-0.3745117, -0.01757813, -0.8881836, 0.01812506, -0.2103124, 0.07281256,147.3087,5,4,True,True,122
68512,-1.527307,-0.7070313,1015.599,-1,-0.3745117, -0.015625, -0.887207, -0.05999994, -0.1009374, 0.1196876,147.3087,5,4,True,True,122
68589,-1.680363,-1.83342,1015.641,-1,-0.3740234, -0.01611328, -0.8891602, -0.02874994, -0.08531237, 0.05718756,147.3087,5,4,True,True,122
68668,-2.59735,-3.514336,1015.703,-1,-0.375, -0.01611328, -0.8847656, 0.04937506, -0.1478124, 0.05718756,147.3087,5,4,True,True,122
68750,-2.787242,-2.977135,1015.683,37.51102,-0.3745117, -0.01513672, -0.8857422, 0.01812506, -0.1634374, 0.07281256,147.3087,5,4,True,True,122
68942,-2.760885,-2.734528,1015.674,-1,-0.3745117, -0.01708984, -0.887207, -0.02874994, -0.1321874, 0.08843756,147.3087,5,4,True,True,122
69022,-2.340476,-1.920067,1015.644,-1,-0.375, -0.015625, -0.8867188, 0.01812506, -0.1946874, 0.1040626,147.3087,5,4,True,True,122
69102,-1.558414,-0.7763519,1015.602,-1,-0.3759766, -0.01757813, -0.8847656, -0.01312494, -0.1478124, 0.04156256,147.3087,5,4,True,True,122
69184,-1.73924,-1.920067,1015.644,-1,-0.3745117, -0.01464844, -0.8852539, 0.03375006, -0.1634374, 0.02593756,147.3087,5,4,True,True,122
69268,-1.829654,-1.920067,1015.644,37.46995,-0.3745117, -0.015625, -0.8857422, 0.01812506, -0.1790624, 0.07281256,147.3087,5,4,True,True,122
69349,-2.299421,-2.769188,1015.676,-1,-0.375, -0.01660156, -0.8842773, -0.01312494, -0.1634374, 0.07281256,147.3087,5,4,True,True,122
69485,-2.404338,-2.509254,1015.666,-1,-0.3740234, -0.015625, -0.8857422, 0.01812506, -0.1478124, 0.1509376,147.3087,5,4,True,True,122
69549,-3.860448,-5.316559,1015.769,-1,-0.375, -0.01416016, -0.8881836, 0.01812506, -0.2415624, 0.08843756,147.3087,5,4,True,True,122
69613,-4.588504,-5.316559,1015.769,-1,-0.375, -0.015625, -0.8857422, -0.01312494, -0.1790624, 0.1040626,147.3087,5,4,True,True,122
69676,-3.95611,-3.323715,1015.696,-1,-0.3754883, -0.01464844, -0.8857422, -0.02874994, -0.2103124, 0.08843756,147.3087,5,4,True,True,122
69743,-2.366231,-0.7763519,1015.602,37.47451,-0.3740234, -0.015625, -0.8847656, 0.06500006, -0.1634374, 0.1196876,147.3087,5,4,True,True,122
69810,-3.000937,-3.635643,1015.707,-1,-0.3735352, -0.01611328, -0.8867188, 0.002500057, -0.1634374, 0.05718756,147.3087,5,4,True,True,122
69990,-3.041023,-3.081108,1015.687,37.45169,-0.3725586, -0.015625, -0.8876953, -0.01312494, -0.1009374, 0.1040626,147.3087,5,4,True,True,122
70059,-2.931098,-2.821175,1015.677,37.45626,-0.3745117, -0.01660156, -0.8876953, -0.02874994, -0.1321874, 0.04156256,147.3087,5,4,True,True,122
70130,-3.309364,-3.68763,1015.709,37.45169,-0.3740234, -0.01367188, -0.8833008, 0.03375006, -0.2415624, 0.1040626,147.3087,5,4,True,True,122
70197,-2.363445,-1.417526,1015.625,-1,-0.375, -0.01513672, -0.8867188, 0.01812506, -0.2103124, 0.07281256,147.3087,5,4,True,True,122
70270,-1.890486,-1.417526,1015.625,37.44713,-0.3730469, -0.01416016, -0.8867188, 0.002500057, -0.1321874, 0.1040626,147.3087,5,4,True,True,122
70341,-2.650424,-3.410362,1015.699,37.44713,-0.3735352, -0.01513672, -0.8847656, 0.01812506, -0.1634374, 0.07281256,147.3087,5,4,True,True,122
70413,-2.328569,-2.006714,1015.647,-1,-0.3745117, -0.01513672, -0.8852539, -0.01312494, -0.1946874, 0.1040626,147.3087,5,4,True,True,122
70492,-2.323601,-2.318634,1015.659,-1,-0.3735352, -0.01611328, -0.8852539, 0.002500057, -0.1009374, 0.07281256,147.3087,5,4,True,True,122
70566,-1.047434,0.2287331,1015.565,37.41975,-0.375, -0.01708984, -0.8842773, 0.04937506, -0.1478124, 0.05718756,147.3087,5,4,True,True,122
70642,-2.402189,-3.756943,1015.712,37.41518,-0.375, -0.01611328, -0.8857422, 0.03375006, -0.1321874, 0.07281256,147.3087,5,4,True,True,122
70717,-1.234025,-0.06586075,1015.576,-1,-0.3745117, -0.01611328, -0.887207, -0.02874994, -0.2259374, 0.08843756,147.3087,5,4,True,True,122
70793,-0.519974,0.1940765,1015.567,-1,-0.3745117, -0.015625, -0.887207, 0.002500057, -0.08531237, 0.07281256,147.3087,5,4,True,True,122
70978,-1.592594,-2.665215,1015.672,-1,-0.3740234, -0.01660156, -0.8847656, -0.02874994, -0.1634374, 0.05718756,147.3087,5,4,True,True,122
71054,-1.851641,-2.110687,1015.651,-1,-0.375, -0.015625, -0.8857422, 0.01812506, -0.1009374, 0.05718756,147.3087,5,4,True,True,122
71134,-1.57393,-1.296219,1015.621,37.36497,-0.3735352, -0.01464844, -0.8847656, 0.01812506, -0.1478124, 0.02593756,147.3087,5,4,True,True,122
71213,-2.431496,-3.289063,1015.694,37.36954,-0.3745117, -0.015625, -0.8867188, 0.01812506, -0.1321874, 0.04156256,147.3087,5,4,True,True,122
71291,-2.019821,-1.608147,1015.633,-1,-0.3745117, -0.015625, -0.8867188, 0.01812506, -0.08531237, 0.1040626,147.3087,5,4,True,True,122
71371,-1.380756,-0.7416916,1015.601,-1,-0.3730469, -0.01464844, -0.8862305, 0.01812506, -0.1634374, 0.1196876,147.3087,5,4,True,True,122
71451,-0.9225923,-0.4644279,1015.591,-1,-0.3745117, -0.015625, -0.8881836, 0.01812506, -0.1165624, 0.07281256,147.3087,5,4,True,True,122
71535,-0.147646,0.6273003,1015.551,37.34672,-0.3735352, -0.01611328, -0.8886719, -0.01312494, -0.1321874, 0.1040626,147.3087,5,4,True,True,122
71637,-0.921216,-1.694786,1015.636,-1,-0.3735352, -0.01513672, -0.8857422, 0.04937506, -0.1165624, 0.05718756,147.3087,5,4,True,True,122
71720,-2.737647,-4.554077,1015.741,-1,-0.3730469, -0.01660156, -0.8852539, 0.002500057, -0.08531237, 0.07281256,147.3087,5,4,True,True,122
71805,-2.51081,-2.283974,1015.657,37.30108,-0.3735352, -0.01513672, -0.887207, -0.01312494, -0.08531237, 0.07281256,147.3087,5,4,True,True,122
71890,-3.67974,-4.848671,1015.752,37.30564,-0.3759766, -0.01611328, -0.8886719, 0.01812506, -0.1946874, 0.07281256,147.3087,5,4,True,True,122
72136,-4.40284,-5.125938,1015.762,37.30108,-0.3730469, -0.015625, -0.8876953, 0.03375006, -0.1790624, 0.07281256,147.3087,5,4,True,True,122
72201,-3.066143,-1.729446,1015.637,37.31934,-0.3754883, -0.01660156, -0.887207, -0.01312494, -0.08531237, 0.1040626,147.3087,5,4,True,True,122
72266,-3.67148,-4.276817,1015.731,37.31477,-0.375, -0.01464844, -0.8881836, -0.01312494, -0.1321874, 0.08843756,147.3087,5,4,True,True,122
72329,-3.974149,-4.276817,1015.731,-1,-0.375, -0.01660156, -0.8881836, -0.02874994, -0.1946874, 0.07281256,147.3087,5,4,True,True,122
72397,-5.529131,-7.084114,1015.834,37.31934,-0.3740234, -0.01660156, -0.8886719, -0.01312494, -0.1634374, 0.1196876,147.3087,5,4,True,True,122
72464,-3.473329,-1.417526,1015.626,-1,-0.3745117, -0.01513672, -0.8852539, 0.03375006, -0.1790624, 0.07281256,147.3087,5,4,True,True,122
72533,-2.150834,-0.8283386,1015.604,37.3239,-0.3745117, -0.01611328, -0.8862305, 0.03375006, -0.1478124, 0.02593756,147.3087,5,4,True,True,122
72603,-2.05278,-1.954727,1015.646,-1,-0.3745117, -0.01660156, -0.8876953, 0.002500057, -0.1165624, 0.08843756,147.3087,5,4,True,True,122
72673,-1.024662,0.003456116,1015.574,-1,-0.375, -0.01513672, -0.887207, 0.002500057, -0.1478124, 0.07281256,147.3087,5,4,True,True,122
72743,-1.922918,-2.821175,1015.677,-1,-0.3745117, -0.01660156, -0.8823242, -0.01312494, -0.08531237, 0.05718756,147.3087,5,4,True,True,122
72818,-1.531589,-1.140259,1015.616,37.3239,-0.3730469, -0.01757813, -0.8833008, -0.01312494, -0.1634374, 0.1196876,147.3087,5,4,True,True,122
72890,-2.176382,-2.821175,1015.677,-1,-0.3745117, -0.01513672, -0.8842773, -0.05999994, -0.1790624, 0.07281256,147.3087,5,4,True,True,122
73076,-2.654738,-3.133095,1015.689,-1,-0.3754883, -0.01464844, -0.8842773, 0.04937506, -0.1009374, 0.07281256,147.3087,5,4,True,True,122
73149,-4.184932,-5.715126,1015.784,-1,-0.3740234, -0.01611328, -0.8886719, 0.03375006, -0.1790624, 0.07281256,147.3087,5,4,True,True,122
73225,-2.97452,-1.764107,1015.638,37.28739,-0.3745117, -0.01416016, -0.8857422, 0.04937506, -0.1634374, 0.07281256,147.3087,5,4,True,True,122
73300,-2.369313,-1.764107,1015.638,37.29195,-0.3745117, -0.015625, -0.8862305, -0.01312494, -0.08531237, 0.05718756,147.3087,5,4,True,True,122
73373,-3.764956,-5.160599,1015.763,-1,-0.3735352, -0.01464844, -0.8886719, -0.02874994, -0.1165624, 0.1353126,147.3087,5,4,True,True,122
73447,-1.924072,-0.0831871,1015.577,-1,-0.3740234, -0.015625, -0.8857422, -0.01312494, -0.1321874, 0.02593756,147.3087,5,4,True,True,122
73525,-3.542335,-5.160599,1015.763,37.29652,-0.3735352, -0.01660156, -0.8862305, 0.04937506, -0.1165624, 0.1040626,147.3087,5,4,True,True,122
73611,-2.653221,-1.764107,1015.638,-1,-0.3745117, -0.015625, -0.8847656, 0.03375006, -0.1321874, 0.08843756,147.3087,5,4,True,True,122
73691,-1.212244,0.2287331,1015.565,37.29195,-0.3740234, -0.015625, -0.8852539, -0.01312494, -0.1165624, 0.07281256,147.3087,5,4,True,True,122
73771,-0.9163159,-0.620388,1015.597,37.29652,-0.375, -0.01611328, -0.8847656, -0.02874994, -0.1165624, 0.07281256,147.3087,5,4,True,True,122
73852,-0.768352,-0.620388,1015.597,37.28739,-0.3745117, -0.01464844, -0.8862305, 0.03375006, -0.1165624, 0.07281256,147.3087,5,4,True,True,122
73936,-0.69437,-0.620388,1015.597,37.28739,-0.375, -0.01464844, -0.8842773, -0.01312494, -0.1634374, 0.08843756,147.3087,5,4,True,True,122
74128,-2.797514,-4.900658,1015.753,-1,-0.3740234, -0.01513672, -0.8852539, -0.02874994, -0.1321874, 0.1196876,147.3087,5,4,True,True,122
74210,-1.440351,-0.0831871,1015.577,-1,-0.3745117, -0.01611328, -0.8847656, -0.01312494, -0.1478124, 0.05718756,147.3087,5,4,True,True,122
74293,-1.628222,-1.816093,1015.64,-1,-0.375, -0.01513672, -0.8847656, -0.01312494, -0.1009374, 0.05718756,147.3087,5,4,True,True,122
74378,-0.2925122,1.043198,1015.535,37.28739,-0.3735352, -0.01611328, -0.8837891, 0.01812506, -0.1478124, 0.1040626,147.3087,5,4,True,True,122
74463,-1.322903,-2.353294,1015.66,37.2737,-0.3735352, -0.01464844, -0.8862305, 0.09625006, -0.1946874, 0.07281256,147.3087,5,4,True,True,122
74596,-3.839602,-6.3563,1015.807,-1,-0.3759766, -0.01660156, -0.887207, 0.04937506, -0.1321874, 0.1353126,147.3087,5,4,True,True,122
74659,-3.962899,-4.086197,1015.723,-1,-0.3740234, -0.01660156, -0.8857422, 0.04937506, -0.1321874, 0.07281256,147.3087,5,4,True,True,122
74725,-2.889496,-1.816093,1015.64,37.2737,-0.3740234, -0.01611328, -0.8833008, 0.03375006, -0.1321874, 0.07281256,147.3087,5,4,True,True,122
74790,-3.487847,-4.086197,1015.723,-1,-0.3735352, -0.01660156, -0.887207, 0.002500057, -0.06968737, 0.05718756,147.3087,5,4,True,True,122
74856,-2.080112,-0.6723785,1015.598,-1,-0.3740234, -0.015625, -0.8842773, -0.05999994, -0.1165624, 0.07281256,147.3087,5,4,True,True,122
74925,-2.511297,-2.942482,1015.682,37.26457,-0.3745117, -0.01464844, -0.8833008, 0.002500057, -0.1009374, 0.07281256,147.3087,5,4,True,True,122
74993,-2.163695,-1.816093,1015.64,-1,-0.3735352, -0.01611328, -0.8842773, 0.002500057, -0.1478124, 0.07281256,147.3087,5,4,True,True,122
75173,-2.847682,-3.53167,1015.703,-1,-0.3735352, -0.01611328, -0.8867188, -0.01312494, -0.1478124, 0.07281256,147.3087,5,4,True,True,122
75243,-4.324728,-5.801773,1015.787,-1,-0.375, -0.015625, -0.8847656, -0.01312494, -0.1634374, 0.08843756,147.3087,5,4,True,True,122
75313,-3.650931,-2.977135,1015.683,-1,-0.3730469, -0.01416016, -0.8857422, 0.01812506, -0.08531237, 0.1040626,147.3087,5,4,True,True,122
