time_launch,filtered_altitude,unfiltered_altitude,pressure,temperature,acceleration_x,acceleration_y,acceleration_z,gyro_x_rate,gyro_y_rate,gyro_z_rate,max_altitude,apogee_counter,event#,error_flag 
10,-2.609745,-3.325439,991.9578,-1,0.05615234, -0.01318359, 1.03125, 7.575156, 3.852656, 0.6578126,0.3286996,1,2,0
28,-1.99283,-1.375916,991.8876,20.51964,0.0859375, -0.02197266, 1.021484, 6.590781, 2.165156, 0.6734376,0.3286996,2,2,0
44,-1.39412,-0.7954102,991.8669,-1,0.144043, -0.02587891, 1.050293, 5.840781, 0.7276564, 1.423438,0.3286996,3,2,0
60,-2.641396,-3.888672,991.9783,-1,0.06542969, -0.002441406, 0.9526367, 8.965781, -3.209844, 0.6109376,0.3286996,4,2,0
74,-2.008656,-1.375916,991.8876,-1,0.2177734, -0.04785156, 0.9921875, 12.40328, 0.3839064, -0.0765624,0.3286996,5,2,0
90,-1.549341,-1.090027,991.8773,-1,0.07373047, -0.01269531, 1.089844, -4.768594, 3.743281, 0.3921876,0.3286996,6,2,0
105,-2.294446,-3.039551,991.9474,-1,0.08203125, 0.001953125, 1.007813, 3.700156, 4.790156, -0.7796874,0.3286996,7,2,0
121,-1.544928,-0.7954102,991.8669,-1,0.08642578, -0.0390625, 1.117676, -6.221719, 1.430781, -0.7640624,0.3286996,8,2,0
138,-2.010623,-2.476318,991.9272,20.5059,0.1113281, -0.02246094, 1.013184, 1.262656, -3.662969, 0.1890626,0.3286996,9,2,0
154,-2.802339,-3.594055,991.9674,-1,0.1196289, -0.0234375, 1.050293, -3.002969, -2.428594, -0.0453124,0.3286996,10,2,0
171,-4.172959,-5.543579,992.0377,-1,0.09179688, -0.01025391, 1.048828, 1.059531, 2.415156, -0.0765624,0.3286996,11,2,0
198,-1.496422,1.180115,991.7955,-1,0.06005859, -0.006835938, 1.044922, -0.01859379, 0.2120314, -0.0453124,0.3286996,12,2,0
216,-3.091107,-4.685791,992.007,20.47841,0.08740234, -0.01269531, 1.035156, -0.9560938, -2.116094, 0.0328126,0.3286996,13,2,0
233,-3.749807,-4.408508,991.9968,-1,0.1020508, -0.02197266, 1.064453, -0.3154688, -2.256719, -0.0921874,0.3286996,14,2,0
250,-4.910945,-6.072083,992.0566,-1,0.09179688, -0.02587891, 1.04834, 0.8407812, 1.055781, -0.0140624,0.3286996,15,2,0
268,-4.646726,-4.382507,991.996,-1,0.08837891, -0.0234375, 1.051758, 0.2470312, 0.6339064, 0.0484376,0.3286996,16,2,0
286,-4.376006,-4.105286,991.9858,20.45092,0.0859375, -0.01025391, 1.038574, 0.5126562, -0.1942186, -0.0296874,0.3286996,17,2,0
302,-3.950363,-3.524719,991.9651,-1,0.08300781, -0.008300781, 1.041992, 0.07515621, 0.5714064, 0.0953126,0.3286996,18,2,0
321,-3.59893,-3.247498,991.955,20.44176,0.07226563, -0.009765625, 1.04541, 0.1845312, 1.508906, 0.0640626,0.3286996,19,2,0
338,-2.578426,-1.557922,991.8942,-1,0.07470703, -0.01806641, 1.049805, 0.09078121, -0.8192186, -0.0140624,0.3286996,20,2,0
356,-4.017668,-5.456909,992.0347,20.4326,0.08984375, -0.02734375, 1.047363, 0.1064062, -1.600469, 0.001562595,0.3286996,21,2,0
372,-3.337966,-2.658264,991.9338,-1,0.1025391, -0.02929688, 1.051758, 0.3564062, -1.069219, 0.0171876,0.3286996,22,2,0
390,-2.712196,-2.086426,991.9133,-1,0.1005859, -0.02050781, 1.055664, 0.4501562, 0.3839064, 0.001562595,0.3286996,23,2,0
407,-3.659992,-4.607788,992.0039,20.40511,0.08789063, -0.01025391, 1.048828, 0.6845312, 1.196406, -0.0921874,0.3286996,24,2,0
423,-2.58729,-1.514587,991.8926,-1,0.08398438, -0.0078125, 1.046387, 0.3876562, 1.008906, -0.0140624,0.3286996,25,2,0
440,-3.168645,-3.75,991.9732,-1,0.08203125, -0.01269531, 1.033203, 0.5907812, 0.02453136, -0.0453124,0.3286996,26,2,0
455,-4.161166,-5.153687,992.0236,-1,0.08007813, -0.01513672, 1.04248, 0.1376562, -0.05359364, -0.0609374,0.3286996,27,2,0
473,-3.669664,-3.178162,991.9526,20.39137,0.07617188, -0.01269531, 1.041504, 0.2001562, 0.7589064, 0.0484376,0.3286996,28,2,0
490,-4.961876,-6.254089,992.0634,-1,0.07763672, -0.01660156, 1.045898, 0.02828121, 0.3057814, 0.001562595,0.3286996,29,2,0
506,-3.7841,-2.606323,991.9321,-1,0.08398438, -0.01513672, 1.044922, -0.04984379, -0.5848436, 0.001562595,0.3286996,30,2,0
525,-3.615438,-3.446777,991.9622,20.37304,0.09375, -0.01708984, 1.044434, 0.09078121, -1.397344, 0.001562595,0.3286996,31,2,0
541,-3.531108,-3.446777,991.9622,-1,0.09472656, -0.01416016, 1.043945, 0.04390621, 0.008906364, -0.0140624,0.3286996,32,2,0
557,-3.631887,-3.732666,991.9724,-1,0.09228516, -0.009765625, 1.046875, 0.04390621, 0.4932814, 0.0953126,0.3286996,33,2,0
575,-3.253382,-2.874878,991.9416,20.36846,0.08984375, -0.01269531, 1.049805, -0.06546879, 0.3526564, 0.0328126,0.3286996,34,2,0
592,-4.740736,-6.228088,992.0623,-1,0.0859375, -0.01757813, 1.047363, 0.1220312, -0.2567186, -0.0140624,0.3286996,35,2,0
608,-3.664862,-2.588989,991.9313,-1,0.08544922, -0.02197266, 1.050293, -0.01859379, 0.2276564, 0.0171876,0.3286996,36,2,0
623,-4.803501,-5.942139,992.0521,-1,0.08056641, -0.008300781, 1.027344, 0.2782812, 0.2901564, -0.0296874,0.3286996,37,2,0
640,-4.813951,-4.824402,992.0119,20.3593,0.08056641, -0.01074219, 1.038086, 0.2001562, 0.07140636, -0.0453124,0.3286996,38,2,0
656,-3.70147,-2.588989,991.9313,-1,0.08740234, -0.02636719, 1.080078, -0.4873438, 0.1026564, 0.0484376,0.3286996,39,2,0
672,-3.565457,-3.429443,991.9614,-1,0.08154297, -0.02441406, 1.019043, 0.4501562, -1.022344, 0.0484376,0.3286996,40,2,0
691,-2.37538,-1.185303,991.8809,20.35013,0.08691406, -0.01464844, 1.046875, -0.9092188, 0.1339064, 0.2984376,0.3286996,41,2,0
708,-1.914649,-1.453918,991.8904,-1,0.08740234, -0.01464844, 1.029785, 0.6220312, 0.6339064, -0.2640624,0.3286996,42,2,0
722,-3.08794,-4.26123,991.9915,-1,0.09423828, -0.02734375, 1.063477, 0.05953121, -0.9598436, -0.0765624,0.3286996,43,2,0
738,-1.712061,-0.3361816,991.8502,-1,0.1000977, -0.02148438, 1.073242, -0.7373438, -1.819219, -0.0296874,0.3286996,44,2,0
753,-2.700727,-3.689392,991.9709,-1,0.09423828, -0.006347656, 1.018555, 1.028281, 1.087031, 0.2359376,0.3286996,45,2,0
768,-3.480978,-4.26123,991.9915,-1,0.08349609, -0.004394531, 1.009277, 0.09078121, 0.9620314, 0.0484376,0.3286996,46,2,0
787,-3.585185,-3.689392,991.9709,20.34097,0.07568359, -0.02734375, 1.095703, -0.6592188, 0.6339064, -0.0765624,0.3286996,47,2,0
804,-3.637289,-3.689392,991.9709,-1,0.078125, -0.01416016, 1.033203, 1.028281, -1.084844, -0.2171874,0.3286996,48,2,0
821,-2.402629,-1.167969,991.8803,-1,0.09277344, -0.01269531, 1.046875, -0.2998438, -0.1629686, 0.4078126,0.3286996,49,2,0
838,-3.604848,-4.807068,992.0112,20.33639,0.08544922, -0.005859375, 1.021484, 0.5126562, -0.8973436, -0.2171874,0.3286996,50,2,0
856,-3.64712,-3.689392,991.9709,-1,0.08447266, -0.01464844, 1.062988, -0.4717188, -0.1004686, -0.0453124,0.3286996,51,2,0
873,-3.668256,-3.689392,991.9709,20.33181,0.078125, -0.02441406, 1.04834, 0.2314062, 0.6182814, 0.0796876,0.3286996,52,2,0
890,-3.956076,-4.243896,991.991,-1,0.08154297, -0.009765625, 1.029297, 0.04390621, -1.256719, -0.0296874,0.3286996,53,2,0
906,-3.398174,-2.840271,991.9402,-1,0.08789063, -0.01464844, 1.052246, -0.2060938, -0.8348436, 0.1890626,0.3286996,54,2,0
924,-3.400808,-3.403442,991.9608,20.33181,0.07910156, -0.01660156, 1.046875, 0.2939062, 1.602656, 0.0953126,0.3286996,55,2,0
941,-3.960994,-4.521179,992.001,-1,0.07714844, -0.01611328, 1.044922, -0.1123438, 0.6026564, 0.0484376,0.3286996,56,2,0
960,-2.564481,-1.167969,991.8803,20.33181,0.08544922, -0.009277344, 1.046387, 0.01265621, -1.897344, -0.0921874,0.3286996,57,2,0
978,-2.845321,-3.12616,991.9508,-1,0.09277344, -0.01074219, 1.038574, 0.05953121, -1.756719, -0.1859374,0.3286996,58,2,0
995,-2.699821,-2.554321,991.9302,20.32722,0.09228516, -0.02441406, 1.060059, -0.1904688, 0.6495314, 0.1265626,0.3286996,59,2,0
1011,-1.652309,-0.6047974,991.8597,-1,0.08691406, -0.01953125, 1.036133, 0.4970312, 0.3214064, 0.0953126,0.3286996,60,2,0
1026,-2.389235,-3.12616,991.9508,-1,0.08837891, -0.01464844, 1.048828, -0.2529688, 0.3057814, 0.0796876,0.3286996,61,2,0
1042,-1.91291,-1.436584,991.8898,-1,0.08886719, -0.01367188, 1.044434, 0.02828121, -0.4754686, -0.1546874,0.3286996,62,2,0
1059,-2.233615,-2.554321,991.9302,-1,0.08740234, -0.01757813, 1.046875, 0.09078121, -0.6785936, -0.1703124,0.3286996,63,2,0
1084,-2.393968,-2.554321,991.9302,-1,0.07324219, -0.009765625, 1.032227, -0.1279688, 0.9151564, 0.0796876,0.3286996,64,2,0
1101,-2.474145,-2.554321,991.9302,20.32265,0.07666016, -0.004394531, 1.050781, -0.6748438, 0.3370314, 0.0484376,0.3286996,65,2,0
1117,-3.488995,-4.503845,992.0002,-1,0.08984375, -0.015625, 1.061035, -0.4717188, -0.8660936, 0.0171876,0.3286996,66,2,0
1133,-2.88735,-2.285706,991.9205,-1,0.09814453, -0.03369141, 1.055176, 0.1220312, -1.787969, 0.0328126,0.3286996,67,2,0
1148,-2.027659,-1.167969,991.8803,-1,0.09375, -0.03417969, 1.03125, 0.4032812, -1.037969, -0.0140624,0.3286996,68,2,0
1164,-3.694646,-5.361633,992.0313,-1,0.08544922, -0.01904297, 1.040527, 0.01265621, 1.477656, 0.0640626,0.3286996,69,2,0
1183,-2.851535,-2.008423,991.9105,20.33181,0.08105469, -0.001953125, 1.055176, 0.05953121, 0.5401564, 0.0328126,0.3286996,70,2,0
1198,-2.988847,-3.12616,991.9508,-1,0.08789063, -0.001464844, 1.049316, 0.1845312, -0.6942186, 0.0640626,0.3286996,71,2,0
1217,-4.032266,-5.075684,992.0208,20.33181,0.08691406, -0.01269531, 1.024414, 0.4032812, -0.6942186, 0.0640626,0.3286996,72,2,0
1235,-2.318532,-0.6047974,991.8597,-1,0.07958984, -0.01660156, 1.037598, -0.3779688, 1.008906, 0.0796876,0.3286996,73,2,0
1254,-2.436426,-2.554321,991.9302,20.32265,0.08349609, -0.01660156, 1.067871, -0.5654688, -0.3660936, -0.0140624,0.3286996,74,2,0
1273,-4.037641,-5.638855,992.0413,20.32722,0.09326172, -0.02392578, 1.057617, 0.1845312, -1.194219, 0.0640626,0.3286996,75,2,0
1289,-3.161673,-2.285706,991.9205,-1,0.09277344, -0.02490234, 1.032715, 0.6220312, -0.4754686, 0.1734376,0.3286996,76,2,0
1304,-3.000972,-2.840271,991.9402,-1,0.0859375, -0.015625, 1.031738, 0.2626562, 0.8682814, 0.0171876,0.3286996,77,2,0
1320,-3.063566,-3.12616,991.9508,-1,0.08056641, -0.006835938, 1.053711, -0.2685938, 0.008906364, -0.1546874,0.3286996,78,2,0
1337,-2.808944,-2.554321,991.9302,-1,0.08398438, -0.002441406, 1.04834, -0.1279688, -0.7098436, -0.1390624,0.3286996,79,2,0
1352,-3.240501,-3.672058,991.9703,-1,0.08642578, -0.01025391, 1.044434, 0.02828121, -0.2567186, 0.1578126,0.3286996,80,2,0
1370,-3.18333,-3.12616,991.9508,20.31806,0.08251953, -0.02099609, 1.032227, 0.2001562, 0.4464064, 0.1109376,0.3286996,81,2,0
1385,-3.011801,-2.840271,991.9402,-1,0.08007813, -0.02587891, 1.052734, -0.4248438, 0.7745314, 0.0640626,0.3286996,82,2,0
1401,-2.926036,-2.840271,991.9402,-1,0.08398438, -0.02050781, 1.056641, -0.1279688, -0.9598436, -0.0921874,0.3286996,83,2,0
1417,-3.299047,-3.672058,991.9703,-1,0.09082031, -0.02099609, 1.053711, -0.01859379, -1.303594, -0.0609374,0.3286996,84,2,0
1433,-3.910113,-4.521179,992.001,-1,0.09277344, -0.01464844, 1.040527, 0.4345312, -0.3348436, 0.0484376,0.3286996,85,2,0
1451,-2.816324,-1.722534,991.9,20.32265,0.08886719, -0.01171875, 1.038574, 0.1689062, 0.6651564, 0.0640626,0.3286996,86,2,0
1467,-2.685323,-2.554321,991.9302,-1,0.08642578, -0.007324219, 1.041504, 0.02828121, 0.3995314, 0.0171876,0.3286996,87,2,0
1484,-2.472514,-2.259705,991.9196,-1,0.08886719, -0.006835938, 1.047852, -0.2998438, -0.3035936, 0.001562595,0.3286996,88,2,0
1502,-2.513417,-2.554321,991.9302,20.32265,0.08300781, -0.01464844, 1.039551, 0.01265621, 0.08703136, -0.0609374,0.3286996,89,2,0
1519,-2.533869,-2.554321,991.9302,-1,0.07568359, -0.02392578, 1.042969, -0.04984379, 0.4620314, 0.0171876,0.3286996,90,2,0
1537,-3.804776,-5.075684,992.0208,-1,0.07714844, -0.02392578, 1.054199, -0.2373438, 0.2745314, 0.001562595,0.3286996,91,2,0
1553,-3.738417,-3.672058,991.9703,20.31806,0.08789063, -0.01953125, 1.050781, 0.07515621, -0.8660936, 0.001562595,0.3286996,92,2,0
1569,-2.86045,-1.982483,991.9094,-1,0.09521484, -0.01611328, 1.047363, 0.2001562, -1.053594, 0.0640626,0.3286996,93,2,0
1584,-2.707386,-2.554321,991.9302,-1,0.09375, -0.01025391, 1.039551, 0.4501562, -0.3973436, -0.0921874,0.3286996,94,2,0
1599,-2.773828,-2.840271,991.9402,-1,0.08691406, -0.01025391, 1.042969, 0.1532812, 0.2745314, -0.1078124,0.3286996,95,2,0
1616,-3.781781,-4.789734,992.0106,-1,0.08447266, -0.009765625, 1.047852, -0.1435938, 0.4151564, -0.0140624,0.3286996,96,2,0
1634,-2.050314,-0.3188477,991.8496,20.32265,0.08642578, -0.01171875, 1.044922, -0.06546879, -0.1473436, 0.0953126,0.3286996,97,2,0
1653,-2.15501,-2.259705,991.9196,20.33181,0.08203125, -0.01953125, 1.041504, -0.03421879, 0.6182814, 0.0328126,0.3286996,98,2,0
1671,-3.056478,-3.957947,991.9805,-1,0.07910156, -0.02441406, 1.04541, 0.01265621, 0.7745314, 0.001562595,0.3286996,99,2,0
1688,-3.364268,-3.672058,991.9703,20.32722,0.08203125, -0.02050781, 1.048828, -0.06546879, -0.4910936, -0.0609374,0.3286996,100,2,0
1705,-3.10227,-2.840271,991.9402,-1,0.09228516, -0.01513672, 1.049316, 0.1689062, -1.350469, 0.001562595,0.3286996,101,2,0
1721,-3.530108,-3.957947,991.9805,-1,0.09375, -0.01269531, 1.038086, 0.3095312, -0.8660936, 0.0328126,0.3286996,102,2,0
1740,-3.328134,-3.12616,991.9508,20.32722,0.08935547, -0.01074219, 1.047852, 0.1064062, 0.6339064, 0.0640626,0.3286996,103,2,0
1757,-2.941228,-2.554321,991.9302,-1,0.08447266, -0.01025391, 1.043945, 0.01265621, 0.3370314, -0.0453124,0.3286996,104,2,0
1775,-2.747775,-2.554321,991.9302,20.32722,0.0859375, -0.01416016, 1.046387, -0.2529688, -0.2879686, -0.0140624,0.3286996,105,2,0
1791,-2.794023,-2.840271,991.9402,-1,0.08056641, -0.02099609, 1.043945, -0.06546879, -0.2723436, -0.0609374,0.3286996,106,2,0
1807,-2.817147,-2.840271,991.9402,-1,0.08105469, -0.0234375, 1.044922, 0.01265621, 0.3839064, 0.0328126,0.3286996,107,2,0
1823,-2.685734,-2.554321,991.9302,-1,0.08251953, -0.02197266, 1.049316, 0.02828121, 0.05578136, 0.0796876,0.3286996,108,2,0
1841,-2.620028,-2.554321,991.9302,20.32265,0.08886719, -0.01367188, 1.049316, 0.1220312, -0.5223436, 0.0328126,0.3286996,109,2,0
1857,-4.822618,-7.025208,992.0911,-1,0.09375, -0.01025391, 1.043945, 0.2001562, -0.9910936, -0.0453124,0.3286996,110,2,0
1874,-3.974389,-3.12616,991.9508,-1,0.09033203, -0.01025391, 1.044922, 0.05953121, 0.1026564, -0.0140624,0.3286996,111,2,0
1892,-3.40733,-2.840271,991.9402,20.32722,0.08496094, -0.01025391, 1.039551, 0.1220312, 0.5401564, -0.0140624,0.3286996,112,2,0
1908,-2.421957,-1.436584,991.8898,-1,0.08154297, -0.01025391, 1.046387, -0.2060938, 0.5245314, 0.0328126,0.3286996,113,2,0
1924,-2.631114,-2.840271,991.9402,-1,0.08398438, -0.01708984, 1.048828, -0.1279688, -0.1317186, 0.0484376,0.3286996,114,2,0
1939,-2.878637,-3.12616,991.9508,-1,0.08398438, -0.02197266, 1.046875, 0.04390621, -0.2879686, 0.0171876,0.3286996,115,2,0
1964,-2.716479,-2.554321,991.9302,-1,0.08300781, -0.02099609, 1.04541, 0.09078121, -0.2567186, -0.0140624,0.3286996,116,2,0
1980,-2.778375,-2.840271,991.9402,-1,0.08544922, -0.01416016, 1.043945, 0.1532812, -0.2567186, 0.0484376,0.3286996,117,2,0
1998,-2.666348,-2.554321,991.9302,20.32722,0.08935547, -0.009765625, 1.043945, 0.1220312, -0.3504686, 0.0171876,0.3286996,118,2,0
2015,-2.896254,-3.12616,991.9508,-1,0.08886719, -0.01074219, 1.041504, 0.05953121, -0.02234364, 0.0484376,0.3286996,119,2,0
2033,-4.128943,-5.361633,992.0313,20.33181,0.08496094, -0.01367188, 1.044922, 0.05953121, 0.1807814, 0.0484376,0.3286996,120,2,0
2049,-2.36687,-0.6047974,991.8597,-1,0.08447266, -0.01660156, 1.046387, -0.1592188, 0.2120314, 0.0328126,0.3286996,121,2,0
2065,-2.746515,-3.12616,991.9508,-1,0.08544922, -0.02050781, 1.049805, -0.1279688, -0.1942186, 0.0328126,0.3286996,122,2,0
2084,-2.377469,-2.008423,991.9105,20.32265,0.08496094, -0.02197266, 1.046875, 0.05953121, -0.08484364, 0.001562595,0.3286996,123,2,0
2100,-2.751814,-3.12616,991.9508,-1,0.08300781, -0.02099609, 1.044922, 0.1689062, 0.1339064, 0.0171876,0.3286996,124,2,0
2117,-2.796043,-2.840271,991.9402,-1,0.08398438, -0.01171875, 1.04541, 0.1532812, -0.1473436, -0.0296874,0.3286996,125,2,0
2134,-3.23405,-3.672058,991.9703,20.33181,0.08789063, -0.01123047, 1.049316, -0.002968788, -0.4754686, -0.0140624,0.3286996,126,2,0
2150,-1.49053,0.2529907,991.8289,-1,0.08935547, -0.01171875, 1.041992, 0.1376562, -0.3660936, 0.0484376,0.3286996,127,2,0
2166,-0.9046887,-0.3188477,991.8496,-1,0.08642578, -0.01269531, 1.045898, -0.08109379, 0.2745314, 0.0796876,0.3286996,128,2,0
2185,-2.015424,-3.12616,991.9508,20.34097,0.08447266, -0.01806641, 1.043457, -0.01859379, 0.2589064, 0.0171876,0.3286996,129,2,0
2201,-3.12966,-4.243896,991.991,-1,0.08300781, -0.01757813, 1.049805, -0.1748438, 0.2276564, 0.0484376,0.3286996,130,2,0
2217,-4.102672,-5.075684,992.0208,-1,0.08496094, -0.01953125, 1.047363, 0.09078121, -0.3348436, -0.0765624,0.3286996,131,2,0
2233,-3.753057,-3.403442,991.9608,-1,0.08544922, -0.01806641, 1.046875, 0.1376562, -0.3660936, -0.0453124,0.3286996,132,2,0
2252,-4.137118,-4.521179,992.001,20.33181,0.08544922, -0.01513672, 1.039063, 0.1689062, -0.1004686, -0.0140624,0.3286996,133,2,0
2268,-4.887987,-5.638855,992.0413,-1,0.08544922, -0.01025391, 1.042969, 0.09078121, -0.02234364, 0.0640626,0.3286996,134,2,0
2287,-3.864129,-2.840271,991.9402,20.34097,0.08740234, -0.009765625, 1.047363, -0.04984379, -0.2254686, 0.001562595,0.3286996,135,2,0
2304,-4.192654,-4.521179,992.001,-1,0.08740234, -0.01367188, 1.044922, 0.02828121, -0.1317186, 0.0171876,0.3286996,136,2,0
2322,-2.541701,-0.8907471,991.8702,20.33639,0.08447266, -0.01953125, 1.044434, -0.03421879, 0.08703136, -0.0453124,0.3286996,137,2,0
2339,-3.53144,-4.521179,992.001,-1,0.08447266, -0.02001953, 1.046387, -0.002968788, 0.08703136, 0.001562595,0.3286996,138,2,0
2355,-4.585147,-5.638855,992.0413,-1,0.08544922, -0.01855469, 1.048828, 0.04390621, -0.1629686, 0.0171876,0.3286996,139,2,0
2372,-3.855654,-3.12616,991.9508,-1,0.08447266, -0.01708984, 1.045898, 0.1532812, -0.08484364, 0.0328126,0.3286996,140,2,0
2389,-3.07068,-2.285706,991.9205,-1,0.08642578, -0.01171875, 1.040527, 0.2314062, -0.1317186, 0.0171876,0.3286996,141,2,0
2405,-3.657288,-4.243896,991.991,-1,0.08642578, -0.01269531, 1.04541, -0.08109379, -0.2254686, 0.0796876,0.3286996,142,2,0
2424,-3.391724,-3.12616,991.9508,20.33181,0.08691406, -0.01464844, 1.043945, -0.04984379, -0.1629686, -0.0140624,0.3286996,143,2,0
2440,-3.397583,-3.403442,991.9608,-1,0.08837891, -0.01660156, 1.046387, -0.1435938, -0.1317186, 0.0796876,0.3286996,144,2,0
2456,-3.118927,-2.840271,991.9402,-1,0.08642578, -0.01806641, 1.044922, 0.02828121, 0.2120314, 0.0171876,0.3286996,145,2,0
2474,-3.122543,-3.12616,991.9508,20.33639,0.08447266, -0.01904297, 1.047852, -0.01859379, 0.07140636, 0.001562595,0.3286996,146,2,0
2491,-3.262993,-3.403442,991.9608,-1,0.08398438, -0.01416016, 1.04541, 0.07515621, -0.1004686, 0.0171876,0.3286996,147,2,0
2509,-4.03503,-4.807068,992.0112,20.34097,0.0859375, -0.01513672, 1.041992, 0.1532812, -0.3504686, -0.0140624,0.3286996,148,2,0
2526,-2.462889,-0.8907471,991.8702,-1,0.08789063, -0.01464844, 1.041016, 0.09078121, -0.1942186, 0.0171876,0.3286996,149,2,0
2542,-1.815429,-1.167969,991.8803,-1,0.08496094, -0.01220703, 1.044434, 0.04390621, 0.05578136, 0.0640626,0.3286996,150,2,0
2560,-3.029663,-4.243896,991.991,20.34097,0.08544922, -0.01464844, 1.046387, -0.1279688, 0.08703136, 0.0328126,0.3286996,151,2,0
2577,-4.334259,-5.638855,992.0413,-1,0.0859375, -0.01660156, 1.04541, -0.06546879, -0.2254686, 0.001562595,0.3286996,152,2,0
2596,-2.469528,-0.6047974,991.8597,20.34097,0.0859375, -0.01855469, 1.044922, 0.1064062, -0.02234364, -0.0296874,0.3286996,153,2,0
2612,-3.356712,-4.243896,991.991,-1,0.08496094, -0.01806641, 1.044434, 0.1220312, 0.04015636, 0.001562595,0.3286996,154,2,0
2628,-3.523052,-3.689392,991.9709,-1,0.08447266, -0.01464844, 1.044922, 0.04390621, 0.07140636, 0.0328126,0.3286996,155,2,0
2646,-2.2069,-0.8907471,991.8702,20.33639,0.08886719, -0.009765625, 1.04248, 0.1376562, -0.3973436, -0.0296874,0.3286996,156,2,0
2661,-2.107661,-2.008423,991.9105,-1,0.08886719, -0.01025391, 1.041504, 0.05953121, -0.3504686, -0.0140624,0.3286996,157,2,0
2677,-2.61691,-3.12616,991.9508,-1,0.08642578, -0.01660156, 1.044922, -0.01859379, 0.008906364, -0.0140624,0.3286996,158,2,0
2694,-1.753829,-0.8907471,991.8702,-1,0.0859375, -0.01757813, 1.047363, -0.09671879, 0.1182814, -0.0140624,0.3286996,159,2,0
2712,-2.578636,-3.403442,991.9608,20.34097,0.08544922, -0.01757813, 1.049805, -0.01859379, 0.1964064, 0.0328126,0.3286996,160,2,0
2727,-3.411266,-4.243896,991.991,-1,0.08642578, -0.01855469, 1.043945, 0.07515621, -0.1004686, 0.0640626,0.3286996,161,2,0
2744,-3.407354,-3.403442,991.9608,-1,0.08544922, -0.01660156, 1.04541, 0.07515621, -0.1160936, 0.0171876,0.3286996,162,2,0
2762,-3.682651,-3.957947,991.9805,20.32265,0.08496094, -0.01464844, 1.044922, 0.04390621, -0.2254686, -0.0921874,0.3286996,163,2,0
2779,-3.127153,-2.571655,991.9307,-1,0.08496094, -0.01269531, 1.043945, 0.09078121, -0.2723436, 0.0171876,0.3286996,164,2,0
2795,-4.525979,-5.924805,992.0515,-1,0.08886719, -0.01269531, 1.041992, 0.05953121, -0.2254686, 0.0328126,0.3286996,165,2,0
2813,-3.826069,-3.12616,991.9508,20.33639,0.08740234, -0.01464844, 1.04541, -0.01859379, 0.1964064, 0.0328126,0.3286996,166,2,0
2839,-2.497019,-1.167969,991.8803,-1,0.08300781, -0.01708984, 1.047363, -0.1592188, 0.1182814, -0.0453124,0.3286996,167,2,0
2855,-3.509099,-4.521179,992.001,-1,0.08447266, -0.01708984, 1.047852, -0.002968788, -0.3035936, -0.0453124,0.3286996,168,2,0
2871,-4.015139,-4.521179,992.001,-1,0.08642578, -0.01855469, 1.043457, 0.09078121, -0.4754686, 0.0640626,0.3286996,169,2,0
2890,-2.734529,-1.453918,991.8904,20.34097,0.08642578, -0.01806641, 1.044922, 0.05953121, 0.1182814, 0.001562595,0.3286996,170,2,0
2907,-2.094223,-1.453918,991.8904,-1,0.08642578, -0.01220703, 1.04541, 0.02828121, 0.1964064, 0.0953126,0.3286996,171,2,0
2922,-2.748833,-3.403442,991.9608,-1,0.08691406, -0.009765625, 1.045898, -0.03421879, -0.05359364, 0.0171876,0.3286996,172,2,0
2940,-4.193844,-5.638855,992.0413,20.33181,0.08544922, -0.01367188, 1.043945, -0.01859379, -0.4754686, -0.0140624,0.3286996,173,2,0
2956,-3.101133,-2.008423,991.9105,-1,0.08496094, -0.01757813, 1.046387, 0.01265621, -0.03796864, -0.0140624,0.3286996,174,2,0
2975,-2.277526,-1.453918,991.8904,20.34097,0.08398438, -0.01806641, 1.044922, 0.05953121, 0.1964064, 0.0640626,0.3286996,175,2,0
2992,-2.983459,-3.689392,991.9709,-1,0.0859375, -0.01464844, 1.047363, 0.02828121, 0.1182814, 0.0640626,0.3286996,176,2,0
3010,-3.752319,-4.521179,992.001,20.34097,0.0859375, -0.015625, 1.047363, 0.07515621, -0.3035936, 0.0171876,0.3286996,177,2,0
3027,-2.603119,-1.453918,991.8904,-1,0.08544922, -0.01464844, 1.044922, 0.09078121, -0.1942186, -0.0296874,0.3286996,178,2,0
3043,-3.146255,-3.689392,991.9709,-1,0.08398438, -0.01464844, 1.044922, 0.1064062, -0.1785936, 0.001562595,0.3286996,179,2,0
3062,-3.833717,-4.521179,992.001,20.33181,0.0859375, -0.01171875, 1.044922, 0.02828121, -0.02234364, 0.0484376,0.3286996,180,2,0
3078,-3.202686,-2.571655,991.9307,-1,0.08642578, -0.01367188, 1.046387, 0.02828121, 0.008906364, 0.0796876,0.3286996,181,2,0
3097,-3.446039,-3.689392,991.9709,20.34097,0.08740234, -0.01806641, 1.049316, -0.01859379, -0.02234364, 0.0171876,0.3286996,182,2,0
3113,-3.008847,-2.571655,991.9307,-1,0.08642578, -0.01904297, 1.042969, 0.05953121, -0.1160936, 0.001562595,0.3286996,183,2,0
3129,-2.790251,-2.571655,991.9307,-1,0.08642578, -0.01806641, 1.044922, 0.01265621, -0.2254686, 0.0171876,0.3286996,184,2,0
3148,-3.096847,-3.403442,991.9608,20.34097,0.08496094, -0.01464844, 1.045898, 0.05953121, 0.008906364, -0.0453124,0.3286996,185,2,0
3164,-3.111503,-3.12616,991.9508,-1,0.08447266, -0.01171875, 1.044922, 0.05953121, 0.1495314, 0.0328126,0.3286996,186,2,0
3180,-3.547725,-3.983948,991.9815,-1,0.08447266, -0.01220703, 1.045898, -0.01859379, 0.02453136, 0.0640626,0.3286996,187,2,0
3198,-2.916716,-2.285706,991.9205,20.34097,0.0859375, -0.01171875, 1.043945, -0.002968788, -0.2254686, -0.0296874,0.3286996,188,2,0
3214,-2.601211,-2.285706,991.9205,-1,0.0859375, -0.01611328, 1.044922, -0.04984379, -0.3348436, -0.0453124,0.3286996,189,2,0
3233,-2.863685,-3.12616,991.9508,20.34097,0.08740234, -0.01806641, 1.047363, 0.02828121, -0.2098436, -0.0140624,0.3286996,190,2,0
3250,-4.394245,-5.924805,992.0515,-1,0.0859375, -0.01708984, 1.04541, 0.01265621, 0.2432814, 0.0484376,0.3286996,191,2,0
3265,-4.041819,-3.689392,991.9709,-1,0.0859375, -0.01464844, 1.046387, -0.01859379, 0.2120314, 0.0484376,0.3286996,192,2,0
3281,-4.424443,-4.807068,992.0112,-1,0.08642578, -0.01416016, 1.042969, -0.01859379, -0.2098436, -0.0453124,0.3286996,193,2,0
3300,-4.191195,-3.957947,991.9805,20.33639,0.0859375, -0.01660156, 1.045898, 0.01265621, -0.2410936, -0.0296874,0.3286996,194,2,0
3316,-3.797319,-3.403442,991.9608,-1,0.0859375, -0.01660156, 1.042969, 0.07515621, -0.1473436, -0.0609374,0.3286996,195,2,0
3335,-4.718087,-5.638855,992.0413,20.33181,0.08740234, -0.01513672, 1.046387, 0.01265621, 0.04015636, 0.0640626,0.3286996,196,2,0
3351,-4.203739,-3.689392,991.9709,-1,0.08691406, -0.01220703, 1.046387, 0.04390621, -0.08484364, 0.0328126,0.3286996,197,2,0
3367,-3.673616,-3.143494,991.9512,-1,0.08691406, -0.01611328, 1.04834, 0.01265621, -0.02234364, -0.0296874,0.3286996,198,2,0
3385,-3.399888,-3.12616,991.9508,20.34097,0.08496094, -0.01660156, 1.04541, 0.02828121, -0.1629686, 0.0484376,0.3286996,199,2,0
3401,-3.54464,-3.689392,991.9709,-1,0.08398438, -0.01708984, 1.046875, 0.04390621, -0.06921864, 0.0484376,0.3286996,200,2,0
3418,-4.734722,-5.924805,992.0515,-1,0.08642578, -0.01416016, 1.044434, 0.05953121, -0.03796864, 0.0171876,0.3286996,201,2,0
3436,-3.09432,-1.453918,991.8904,20.33639,0.0859375, -0.01611328, 1.043945, 0.1220312, -0.02234364, 0.0953126,0.3286996,202,2,0
3452,-3.391856,-3.689392,991.9709,-1,0.08642578, -0.01464844, 1.044922, 0.07515621, -0.05359364, -0.0140624,0.3286996,203,2,0
3469,-4.099462,-4.807068,992.0112,-1,0.08544922, -0.01416016, 1.045898, 0.02828121, -0.05359364, -0.0453124,0.3286996,204,2,0
3487,-1.806262,0.4869385,991.8205,20.34097,0.08398438, -0.015625, 1.046875, -0.08109379, -0.006718636, 0.0484376,0.3286996,205,2,0
3504,-1.63009,-1.453918,991.8904,-1,0.08496094, -0.01660156, 1.04541, -0.04984379, -0.1473436, 0.0640626,0.3286996,206,2,0
3522,-1.542004,-1.453918,991.8904,20.34097,0.08740234, -0.01806641, 1.044434, 0.04390621, -0.05359364, 0.0640626,0.3286996,207,2,0
3539,-1.64527,-1.748535,991.9009,-1,0.08544922, -0.01757813, 1.046387, -0.01859379, -0.02234364, 0.0484376,0.3286996,208,2,0
3557,-2.667331,-3.689392,991.9709,20.34555,0.08544922, -0.01464844, 1.045898, 0.09078121, -0.08484364, -0.0140624,0.3286996,209,2,0
3573,-3.325639,-3.983948,991.9815,-1,0.08496094, -0.01318359, 1.042969, 0.1220312, -0.2567186, -0.0296874,0.3286996,210,2,0
3590,-2.948647,-2.571655,991.9307,-1,0.08544922, -0.01269531, 1.044434, 0.09078121, 0.008906364, 0.0796876,0.3286996,211,2,0
3608,-2.201283,-1.453918,991.8904,20.34555,0.08496094, -0.015625, 1.043945, -0.03421879, 0.08703136, 0.0171876,0.3286996,212,2,0
3624,-2.11352,-2.025757,991.911,-1,0.08544922, -0.015625, 1.046875, -0.1592188, -0.02234364, 0.0640626,0.3286996,213,2,0
3641,-2.901456,-3.689392,991.9709,-1,0.0859375, -0.01660156, 1.047363, -0.01859379, -0.2410936, -0.0140624,0.3286996,214,2,0
3656,-3.572676,-4.243896,991.991,-1,0.08691406, -0.01855469, 1.044434, 0.02828121, -0.1785936, -0.0140624,0.3286996,215,2,0
3673,-2.240379,-0.9080811,991.8707,20.34097,0.0859375, -0.01660156, 1.043945, 0.1220312, -0.08484364, 0.001562595,0.3286996,216,2,0
3690,-3.112163,-3.983948,991.9815,-1,0.08544922, -0.01318359, 1.044434, 0.09078121, 0.08703136, -0.0140624,0.3286996,217,2,0
3715,-4.518484,-5.924805,992.0515,-1,0.08544922, -0.01220703, 1.04541, 0.09078121, -0.08484364, 0.0171876,0.3286996,218,2,0
3732,-3.402095,-2.285706,991.9205,-1,0.08642578, -0.01416016, 1.042969, -0.01859379, -0.1942186, 0.001562595,0.3286996,219,2,0
3750,-4.66345,-5.924805,992.0515,20.34097,0.08447266, -0.01806641, 1.044434, -0.002968788, 0.08703136, -0.0140624,0.3286996,220,2,0
3767,-3.058684,-1.453918,991.8904,-1,0.08544922, -0.01806641, 1.04834, -0.06546879, 0.04015636, 0.0484376,0.3286996,221,2,0
3785,-2.542221,-2.025757,991.911,20.34555,0.08544922, -0.01708984, 1.049316, 0.04390621, -0.1317186, 0.0328126,0.3286996,222,2,0
3801,-3.115806,-3.689392,991.9709,-1,0.08691406, -0.01806641, 1.043945, 0.1064062, -0.1317186, 0.0171876,0.3286996,223,2,0
3817,-3.961437,-4.807068,992.0112,-1,0.08740234, -0.01513672, 1.042969, 0.1220312, -0.1004686, 0.0484376,0.3286996,224,2,0
3833,-4.384253,-4.807068,992.0112,-1,0.08496094, -0.01513672, 1.045898, -0.01859379, -0.03796864, -0.0453124,0.3286996,225,2,0
3850,-2.919086,-1.453918,991.8904,-1,0.08544922, -0.01367188, 1.044922, 0.05953121, -0.1942186, -0.0140624,0.3286996,226,2,0
3866,-2.186502,-1.453918,991.8904,-1,0.08886719, -0.01464844, 1.046875, -0.002968788, -0.2254686, 0.0328126,0.3286996,227,2,0
3883,-1.677235,-1.167969,991.8803,-1,0.08740234, -0.01660156, 1.04541, 0.1064062, 0.08703136, 0.0171876,0.3286996,228,2,0
3901,-2.124445,-2.571655,991.9307,20.34097,0.08447266, -0.01855469, 1.046875, -0.01859379, 0.07140636, 0.0484376,0.3286996,229,2,0
3917,-3.322812,-4.521179,992.001,-1,0.08251953, -0.01757813, 1.046387, 0.05953121, -0.006718636, 0.0484376,0.3286996,230,2,0
3933,-3.506102,-3.689392,991.9709,-1,0.08496094, -0.01660156, 1.04834, 0.05953121, -0.1785936, 0.0171876,0.3286996,231,2,0
3951,-3.316131,-3.12616,991.9508,20.34097,0.08837891, -0.01611328, 1.042969, 0.1845312, -0.1160936, 0.0328126,0.3286996,232,2,0
3968,-3.502761,-3.689392,991.9709,-1,0.08642578, -0.01318359, 1.04541, 0.1220312, 0.008906364, 0.0328126,0.3286996,233,2,0
3984,-3.596077,-3.689392,991.9709,-1,0.08837891, -0.01123047, 1.04541, -0.03421879, -0.08484364, 0.001562595,0.3286996,234,2,0
4003,-2.524998,-1.453918,991.8904,20.33639,0.08691406, -0.01416016, 1.035645, -0.03421879, -0.3035936, -0.0140624,0.3286996,235,2,0
4020,-1.707872,-0.8907471,991.8702,-1,0.08154297, -0.01757813, 1.049316, 0.1376562, -0.1785936, 0.001562595,0.3286996,236,2,0
4035,-1.580895,-1.453918,991.8904,-1,0.08447266, -0.015625, 1.046875, 0.1220312, 0.2745314, 0.0640626,0.3286996,237,2,0
4049,-1.517407,-1.453918,991.8904,-1,0.08789063, -0.01806641, 1.046875, -0.06546879, 0.2745314, -0.0296874,0.3286996,238,2,0
4064,-2.460425,-3.403442,991.9608,-1,0.08251953, -0.015625, 1.045898, 0.1689062, -0.3192186, 0.0171876,0.3286996,239,2,0
4079,-2.931933,-3.403442,991.9608,-1,0.08837891, -0.01513672, 1.038086, -0.2217188, -0.6160936, 0.1109376,0.3286996,240,2,0
4094,-3.587915,-4.243896,991.991,-1,0.08544922, -0.01660156, 1.044922, -0.1904688, -0.1317186, 0.0953126,0.3286996,241,2,0
4110,-3.785931,-3.983948,991.9815,-1,0.08496094, -0.01416016, 1.047852, 0.07515621, 0.1026564, 0.0328126,0.3286996,242,2,0
4125,-3.594687,-3.403442,991.9608,-1,0.08789063, -0.01269531, 1.047852, -0.06546879, -0.006718636, 0.0640626,0.3286996,243,2,0
4144,-2.671611,-1.748535,991.9009,20.35013,0.08837891, -0.01416016, 1.04834, -0.01859379, -0.3817186, 0.0171876,0.3286996,244,2,0
4160,-3.037527,-3.403442,991.9608,-1,0.08691406, -0.01757813, 1.044922, -0.01859379, -0.2254686, -0.0140624,0.3286996,245,2,0
4175,-2.531642,-2.025757,991.911,-1,0.08154297, -0.01757813, 1.04248, -0.06546879, 0.2901564, -0.0609374,0.3286996,246,2,0
4192,-1.711194,-0.8907471,991.8702,-1,0.08496094, -0.01416016, 1.054199, -0.2060938, 0.02453136, -0.0140624,0.3286996,247,2,0
4211,-2.700293,-3.689392,991.9709,20.32722,0.08984375, -0.01757813, 1.049805, -0.09671879, -0.2879686, 0.0171876,0.3286996,248,2,0
4230,-2.635974,-2.571655,991.9307,20.34097,0.09179688, -0.02148438, 1.043457, 0.2001562, -0.6160936, 0.0484376,0.3286996,249,2,0
4246,-3.162683,-3.689392,991.9709,-1,0.08691406, -0.01806641, 1.039063, 0.09078121, 0.1182814, 0.001562595,0.3286996,250,2,0
4263,-2.867169,-2.571655,991.9307,-1,0.08105469, -0.01074219, 1.045898, -0.1592188, 0.8370314, 0.0171876,0.3286996,251,2,0
4281,-3.278281,-3.689392,991.9709,20.33181,0.08154297, -0.008300781, 1.047363, -0.03421879, 0.6495314, 0.0640626,0.3286996,252,2,0
4298,-2.924968,-2.571655,991.9307,-1,0.0859375, -0.01416016, 1.041504, 0.04390621, -0.7410936, 0.0171876,0.3286996,253,2,0
4314,-2.046468,-1.167969,991.8803,-1,0.08886719, -0.02050781, 1.043457, -0.1435938, -0.5223436, 0.0328126,0.3286996,254,2,0
4332,-2.724955,-3.403442,991.9608,20.34555,0.08740234, -0.01806641, 1.046387, -0.06546879, -0.1942186, 0.0328126,0.3286996,255,2,0
4349,-3.207174,-3.689392,991.9709,-1,0.08837891, -0.01708984, 1.050781, -0.2060938, -0.1160936, 0.0171876,0.3286996,256,2,0
4367,-3.305308,-3.403442,991.9608,20.33639,0.08935547, -0.01611328, 1.048828, 0.05953121, -0.2723436, 0.0484376,0.3286996,257,2,0
4384,-4.056188,-4.807068,992.0112,-1,0.08789063, -0.01513672, 1.041504, 0.2470312, 0.3370314, 0.0484376,0.3286996,258,2,0
4402,-2.755053,-1.453918,991.8904,20.34097,0.08300781, -0.01318359, 1.043457, -0.01859379, 0.3682814, 0.0484376,0.3286996,259,2,0
4420,-2.238794,-1.722534,991.9,-1,0.08251953, -0.01123047, 1.04541, -0.1123438, 0.08703136, 0.0171876,0.3286996,260,2,0
4439,-1.703381,-1.167969,991.8803,20.33181,0.08300781, -0.01757813, 1.047363, -0.03421879, -0.4285936, -0.0609374,0.3286996,261,2,0
4455,-2.696387,-3.689392,991.9709,-1,0.08789063, -0.01953125, 1.044922, -0.002968788, -0.4285936, 0.001562595,0.3286996,262,2,0
4473,-2.911273,-3.12616,991.9508,20.33639,0.08789063, -0.01953125, 1.044922, -0.04984379, 0.08703136, 0.0328126,0.3286996,263,2,0
4490,-1.90101,-0.8907471,991.8702,-1,0.08642578, -0.01513672, 1.049805, -0.08109379, 0.1339064, 0.0328126,0.3286996,264,2,0
4509,-2.236333,-2.571655,991.9307,20.32265,0.08496094, -0.01464844, 1.04541, 0.1376562, -0.2098436, 0.001562595,0.3286996,265,2,0
4525,-0.8616966,0.5129395,991.8195,-1,0.08691406, -0.01660156, 1.044922, 0.09078121, -0.2723436, -0.0140624,0.3286996,266,2,0
4544,-0.733247,-0.6047974,991.8597,20.33181,0.08496094, -0.01464844, 1.041504, 0.01265621, 0.1807814, 0.0328126,0.3286996,267,2,0
4562,-1.786759,-2.840271,991.9402,-1,0.08349609, -0.01416016, 1.046387, -0.08109379, 0.3214064, 0.0484376,0.3286996,268,2,0
4589,-2.456459,-3.12616,991.9508,20.33181,0.08642578, -0.01855469, 1.048828, -0.03421879, -0.3504686, 0.0484376,0.3286996,269,2,0
4606,-2.929951,-3.403442,991.9608,-1,0.08691406, -0.01904297, 1.043945, 0.09078121, -0.2098436, 0.001562595,0.3286996,270,2,0
4622,-2.750803,-2.571655,991.9307,-1,0.08642578, -0.01708984, 1.042969, 0.07515621, -0.08484364, 0.0171876,0.3286996,271,2,0
4641,-2.938481,-3.12616,991.9508,20.33639,0.08642578, -0.01318359, 1.046387, 0.02828121, -0.006718636, 0.0640626,0.3286996,272,2,0
4661,-3.170962,-3.403442,991.9608,20.33181,0.08691406, -0.01220703, 1.044922, 0.09078121, -0.1160936, 0.0328126,0.3286996,273,2,0
4677,-0.9131176,1.344727,991.7898,-1,0.0859375, -0.01367188, 1.044922, 0.02828121, -0.05359364, -0.0296874,0.3286996,274,2,0
4696,-2.301255,-3.689392,991.9709,20.34097,0.08300781, -0.01464844, 1.046875, -0.04984379, 0.008906364, 0.001562595,0.3286996,275,2,0
4713,-1.596001,-0.8907471,991.8702,-1,0.08544922, -0.01757813, 1.04834, 0.01265621, -0.08484364, 0.0328126,0.3286996,276,2,0
4729,-1.802212,-2.008423,991.9105,-1,0.08398438, -0.01708984, 1.043457, -0.04984379, -0.08484364, 0.0171876,0.3286996,277,2,0
4748,-2.602827,-3.403442,991.9608,20.33639,0.08398438, -0.01757813, 1.044434, 0.07515621, 0.05578136, -0.0609374,0.3286996,278,2,0
4767,-3.293387,-3.983948,991.9815,20.33639,0.08447266, -0.01416016, 1.046387, -0.01859379, 0.008906364, -0.0140624,0.3286996,279,2,0
4784,-3.209774,-3.12616,991.9508,-1,0.08642578, -0.01367188, 1.041504, 0.04390621, -0.4754686, 0.0171876,0.3286996,280,2,0
4802,-1.907285,-0.6047974,991.8597,20.32265,0.08837891, -0.01464844, 1.044922, -0.01859379, -0.4285936, 0.0484376,0.3286996,281,2,0
4820,-2.083495,-2.259705,991.9196,-1,0.08740234, -0.015625, 1.044434, -0.01859379, 0.05578136, -0.0296874,0.3286996,282,2,0
4839,-1.612762,-1.142029,991.8794,20.31806,0.08300781, -0.015625, 1.04541, -0.08109379, 0.2901564, -0.0140624,0.3286996,283,2,0
4855,-1.524673,-1.436584,991.8898,-1,0.08496094, -0.01513672, 1.04541, 0.07515621, -0.1473436, 0.0171876,0.3286996,284,2,0
4873,-2.039497,-2.554321,991.9302,20.32265,0.08691406, -0.01708984, 1.046387, 0.05953121, -0.2723436, 0.0640626,0.3286996,285,2,0
4890,-2.296909,-2.554321,991.9302,-1,0.08740234, -0.01660156, 1.04541, 0.07515621, -0.006718636, 0.0171876,0.3286996,286,2,0
4905,-2.425615,-2.554321,991.9302,-1,0.08691406, -0.015625, 1.043945, 0.01265621, -0.1317186, 0.0484376,0.3286996,287,2,0
4921,-1.783822,-1.142029,991.8794,-1,0.08886719, -0.01660156, 1.045898, 0.07515621, -0.2410936, 0.0640626,0.3286996,288,2,0
4939,-1.051335,-0.3188477,991.8496,20.32722,0.08837891, -0.01416016, 1.046875, -0.002968788, -0.1473436, 0.0640626,0.3286996,289,2,0
4955,-2.361696,-3.672058,991.9703,-1,0.08642578, -0.01464844, 1.043457, -0.002968788, 0.05578136, -0.0140624,0.3286996,290,2,0
4971,-2.743928,-3.12616,991.9508,-1,0.08544922, -0.01660156, 1.045898, -0.002968788, 0.07140636, 0.001562595,0.3286996,291,2,0
4990,-2.363205,-1.982483,991.9094,20.32265,0.08496094, -0.01513672, 1.046387, -0.01859379, 0.008906364, 0.0328126,0.3286996,292,2,0
5005,-1.899895,-1.436584,991.8898,-1,0.08447266, -0.01708984, 1.047363, 0.01265621, -0.03796864, 0.0171876,0.3286996,293,2,0
5022,-0.8234521,0.2529907,991.8289,-1,0.08496094, -0.01611328, 1.04541, 0.09078121, -0.1160936, 0.0328126,0.3286996,294,2,0
5040,-1.541578,-2.259705,991.9196,20.32265,0.08691406, -0.01660156, 1.04248, 0.1220312, -0.1942186, 0.001562595,0.3286996,295,2,0
5056,-2.04795,-2.554321,991.9302,-1,0.08691406, -0.015625, 1.047852, -0.01859379, -0.1160936, 0.0171876,0.3286996,296,2,0
5072,-1.594989,-1.142029,991.8794,-1,0.08740234, -0.01416016, 1.046387, 0.01265621, -0.06921864, -0.0296874,0.3286996,297,2,0
5091,-2.074655,-2.554321,991.9302,20.31806,0.08740234, -0.01611328, 1.044922, 0.01265621, -0.06921864, -0.0140624,0.3286996,298,2,0
5107,-2.314488,-2.554321,991.9302,-1,0.08740234, -0.01757813, 1.044434, 0.05953121, -0.006718636, 0.0171876,0.3286996,299,2,0
5123,-2.287097,-2.259705,991.9196,-1,0.08691406, -0.01806641, 1.043945, 0.05953121, 0.02453136, 0.001562595,0.3286996,300,2,0
5142,-3.122522,-3.957947,991.9805,20.32265,0.0859375, -0.01806641, 1.04834, 0.01265621, 0.008906364, 0.001562595,0.3286996,301,2,0
5159,-2.838421,-2.554321,991.9302,-1,0.08398438, -0.015625, 1.049805, 0.1220312, -0.2098436, -0.0296874,0.3286996,302,2,0
5177,-3.107931,-3.377441,991.9598,20.32265,0.08642578, -0.01513672, 1.043457, 0.1064062, -0.1473436, 0.0171876,0.3286996,303,2,0
5193,-3.389995,-3.672058,991.9703,-1,0.08691406, -0.01416016, 1.044434, 0.04390621, -0.1004686, 0.0171876,0.3286996,304,2,0
5212,-4.089864,-4.789734,992.0106,20.32265,0.08642578, -0.01220703, 1.044922, -0.08109379, 0.08703136, 0.0484376,0.3286996,305,2,0
5230,-3.608012,-3.12616,991.9508,-1,0.08544922, -0.01318359, 1.045898, -0.09671879, 0.02453136, 0.0171876,0.3286996,306,2,0
5248,-3.081167,-2.554321,991.9302,20.31806,0.08544922, -0.01855469, 1.04541, 0.09078121, -0.1942186, 0.0328126,0.3286996,307,2,0
5265,-2.531825,-1.982483,991.9094,-1,0.08544922, -0.02001953, 1.043945, -0.002968788, -0.2567186, 0.0328126,0.3286996,308,2,0
5283,-2.257154,-1.982483,991.9094,20.32265,0.08642578, -0.01660156, 1.046875, 0.01265621, -0.02234364, 0.001562595,0.3286996,309,2,0
5300,-2.678656,-3.100159,991.9497,-1,0.08740234, -0.01367188, 1.046387, 0.05953121, -0.05359364, 0.0171876,0.3286996,310,2,0
5316,-2.902408,-3.12616,991.9508,-1,0.08496094, -0.01220703, 1.044434, -0.002968788, -0.1317186, 0.0171876,0.3286996,311,2,0
5335,-2.581056,-2.259705,991.9196,20.31348,0.0859375, -0.01464844, 1.043945, 0.1064062, -0.1473436, 0.0171876,0.3286996,312,2,0
5351,-1.449952,-0.3188477,991.8496,-1,0.08642578, -0.01708984, 1.044434, -0.06546879, 0.02453136, -0.0453124,0.3286996,313,2,0
5370,-1.716218,-1.982483,991.9094,20.31806,0.08740234, -0.01806641, 1.046387, -0.03421879, 0.04015636, 0.0484376,0.3286996,314,2,0
5386,-1.017533,-0.3188477,991.8496,-1,0.08642578, -0.015625, 1.045898, 0.05953121, 0.02453136, 0.0484376,0.3286996,315,2,0
5405,-1.638619,-2.259705,991.9196,20.31806,0.08496094, -0.01660156, 1.04541, 0.04390621, -0.08484364, 0.0328126,0.3286996,316,2,0
5422,-3.214176,-4.789734,992.0106,-1,0.08447266, -0.01464844, 1.04248, -0.03421879, -0.1317186, -0.0296874,0.3286996,317,2,0
5440,-2.73694,-2.259705,991.9196,20.32722,0.08105469, -0.01367188, 1.040039, -0.002968788, -0.08484364, 0.0171876,0.3286996,318,2,0
5458,-3.057191,-3.377441,991.9598,-1,0.08105469, -0.01464844, 1.043945, -0.3310938, 0.04015636, 0.0796876,0.3286996,319,2,0
5482,-2.805756,-2.554321,991.9302,-1,0.0859375, -0.01806641, 1.045898, -0.06546879, -0.3035936, 0.0796876,0.3286996,320,2,0
5498,-1.415024,-0.02429199,991.8391,-1,0.09277344, -0.01953125, 1.054688, -0.2685938, -0.6942186, 0.0640626,0.3286996,321,2,0
5516,-1.837364,-2.259705,991.9196,20.31806,0.09521484, -0.02001953, 1.049805, -0.09671879, -0.8035936, 0.0171876,0.3286996,322,2,0
5533,-1.909924,-1.982483,991.9094,-1,0.09423828, -0.01708984, 1.051758, 0.09078121, -0.1942186, -0.0453124,0.3286996,323,2,0
5549,-2.505041,-3.100159,991.9497,-1,0.09179688, -0.01416016, 1.047363, 0.2314062, 0.1182814, -0.0296874,0.3286996,324,2,0
5567,-1.126025,0.2529907,991.8289,20.32265,0.08935547, -0.01220703, 1.043945, 0.2626562, 0.3995314, 0.0171876,0.3286996,325,2,0
5584,-1.281305,-1.436584,991.8898,-1,0.08544922, -0.01220703, 1.041992, 0.04390621, 0.5089064, 0.0484376,0.3286996,326,2,0
5602,-1.917813,-2.554321,991.9302,20.31348,0.07763672, -0.01367188, 1.04541, -0.03421879, 0.3995314, -0.0453124,0.3286996,327,2,0
5619,-2.379042,-2.840271,991.9402,-1,0.07910156, -0.01708984, 1.043945, -0.09671879, -0.2410936, -0.0140624,0.3286996,328,2,0
5635,-2.466682,-2.554321,991.9302,-1,0.08251953, -0.02001953, 1.04834, -0.01859379, -0.4129686, -0.0140624,0.3286996,329,2,0
5653,-1.392765,-0.3188477,991.8496,20.32265,0.08789063, -0.01660156, 1.045898, 0.09078121, -0.3817186, 0.0171876,0.3286996,330,2,0
5669,-1.687624,-1.982483,991.9094,-1,0.09082031, -0.01708984, 1.050781, -0.03421879, -0.3035936, 0.001562595,0.3286996,331,2,0
5685,-0.7173165,0.2529907,991.8289,-1,0.09130859, -0.01660156, 1.04834, 0.05953121, -0.3973436, 0.0171876,0.3286996,332,2,0
5700,-1.3499,-1.982483,991.9094,-1,0.09179688, -0.01416016, 1.048828, 0.1376562, -0.2879686, -0.0140624,0.3286996,333,2,0
5719,-1.666191,-1.982483,991.9094,20.32265,0.08789063, -0.015625, 1.043945, 0.1845312, 0.3839064, 0.001562595,0.3286996,334,2,0
5735,-1.824337,-1.982483,991.9094,-1,0.08300781, -0.01171875, 1.045898, 0.1845312, 0.5870314, 0.001562595,0.3286996,335,2,0
5751,-2.600889,-3.377441,991.9598,-1,0.08105469, -0.01269531, 1.044434, 0.02828121, 0.4307814, 0.0484376,0.3286996,336,2,0
5769,-1.871459,-1.142029,991.8794,20.32265,0.08154297, -0.01367188, 1.045898, -0.03421879, -0.06921864, 0.0640626,0.3286996,337,2,0
5787,-1.654022,-1.436584,991.8898,-1,0.08398438, -0.01708984, 1.041992, -0.04984379, -0.2879686, 0.0484376,0.3286996,338,2,0
5803,-1.818252,-1.982483,991.9094,-1,0.08740234, -0.02148438, 1.046387, -0.1435938, -0.6629686, 0.0328126,0.3286996,339,2,0
5821,-2.186287,-2.554321,991.9302,20.31348,0.08984375, -0.01513672, 1.046387, 0.02828121, -0.4129686, 0.001562595,0.3286996,340,2,0
5837,-1.525517,-0.8647461,991.8691,-1,0.09228516, -0.01318359, 1.043457, 0.1532812, -0.1942186, 0.001562595,0.3286996,341,2,0
5853,-1.892611,-2.259705,991.9196,-1,0.09326172, -0.01269531, 1.04834, 0.01265621, -0.03796864, -0.0609374,0.3286996,342,2,0
5871,-2.223466,-2.554321,991.9302,20.31348,0.08349609, -0.01416016, 1.042969, 0.1220312, 0.2901564, -0.0921874,0.3286996,343,2,0
5888,-2.241585,-2.259705,991.9196,-1,0.07958984, -0.01953125, 1.047852, -0.04984379, 0.2589064, 0.0328126,0.3286996,344,2,0
5906,-2.112034,-1.982483,991.9094,20.3089,0.08105469, -0.02294922, 1.050293, 0.2001562, 0.1182814, 0.0796876,0.3286996,345,2,0
5922,-2.185869,-2.259705,991.9196,-1,0.09033203, -0.02148438, 1.052734, 0.2939062, -0.1942186, 0.0953126,0.3286996,346,2,0
5938,-2.370095,-2.554321,991.9302,-1,0.09375, -0.01464844, 1.038574, 0.5282812, -0.2098436, 0.0484376,0.3286996,347,2,0
5954,-1.058552,0.2529907,991.8289,-1,0.08642578, -0.02685547, 1.05127, 0.9032812, -0.06921864, -0.0921874,0.3286996,348,2,0
5972,-1.806437,-2.554321,991.9302,-1,0.08984375, -0.01416016, 1.044922, 0.07515621, -0.2723436, -0.0765624,0.3286996,349,2,0
5988,-2.033071,-2.259705,991.9196,-1,0.09716797, 0.002929688, 1.028809, 0.07515621, -0.4285936, 0.2046876,0.3286996,350,2,0
6007,-2.705256,-3.377441,991.9598,20.31806,0.08691406, -0.005859375, 1.040039, -0.7529688, 0.8839064, 0.001562595,0.3286996,351,2,0
6024,-3.747495,-4.789734,992.0106,-1,0.08886719, -0.01416016, 1.044922, 0.5907812, 0.3682814, -0.1859374,0.3286996,352,2,0
6040,-2.864989,-1.982483,991.9094,-1,0.08984375, -0.02246094, 1.053711, -0.1592188, -1.006719, -0.0296874,0.3286996,353,2,0
6058,-2.982574,-3.100159,991.9497,20.31348,0.08447266, -0.02197266, 1.046387, 0.1689062, 0.1807814, -0.0140624,0.3286996,354,2,0
6074,-1.221817,0.5389404,991.8187,-1,0.07910156, -0.01953125, 1.029297, 0.6532812, 0.9620314, -0.0453124,0.3286996,355,2,0
6091,-1.888069,-2.554321,991.9302,-1,0.08007813, -0.02929688, 1.071777, -0.3623438, -0.3504686, 0.0953126,0.3286996,356,2,0
6108,-1.376408,-0.8647461,991.8691,20.31806,0.08740234, -0.01416016, 1.027832, 0.8720312, -1.037969, -0.0609374,0.3286996,357,2,0
6124,-3.35602,-5.335632,992.0302,-1,0.09130859, -0.009277344, 1.037598, 0.1689062, -0.3192186, 0.1109376,0.3286996,358,2,0
6141,-2.669251,-1.982483,991.9094,-1,0.08740234, -0.003417969, 1.046875, -0.1279688, -0.05359364, -0.0140624,0.3286996,359,2,0
6156,-2.325867,-1.982483,991.9094,-1,0.08789063, -0.008300781, 1.038086, 0.5282812, -0.08484364, -0.1234374,0.3286996,360,2,0
6174,-3.271881,-4.217896,991.9899,20.31348,0.08740234, -0.02099609, 1.05127, -0.3310938, 0.3995314, 0.1265626,0.3286996,361,2,0
6191,-2.206955,-1.142029,991.8794,20.31348,0.08349609, -0.01708984, 1.039063, -0.1748438, 0.1964064, 0.0171876,0.3286996,362,2,0
6206,-0.9769821,0.2529907,991.8289,-1,0.08496094, -0.01855469, 1.059082, -0.2373438, -0.02234364, -0.0453124,0.3286996,363,2,0
6223,-1.479733,-1.982483,991.9094,-1,0.08251953, -0.02490234, 1.053711, 0.3720312, -0.4129686, -0.1078124,0.3286996,364,2,0
6241,-1.869719,-2.259705,991.9196,20.31806,0.08837891, -0.02001953, 1.038086, 0.5282812, -0.5067186, -0.0140624,0.3286996,365,2,0
6257,-1.926101,-1.982483,991.9094,-1,0.09033203, -0.01074219, 1.041016, 0.2626562, -0.1004686, 0.0328126,0.3286996,366,2,0
6273,-2.240211,-2.554321,991.9302,-1,0.09033203, -0.002441406, 1.045898, 0.01265621, 0.1495314, -0.0140624,0.3286996,367,2,0
6291,-3.229053,-4.217896,991.9899,20.31348,0.08544922, -0.0078125, 1.041016, 0.01265621, 0.2745314, 0.0484376,0.3286996,368,2,0
6308,-2.605768,-1.982483,991.9094,-1,0.07910156, -0.02148438, 1.046387, -0.2685938, 0.1495314, 0.0484376,0.3286996,369,2,0
6326,-3.697751,-4.789734,992.0106,20.31348,0.08154297, -0.01953125, 1.045898, -0.1592188, -0.03796864, 0.0171876,0.3286996,370,2,0
6352,-3.957823,-4.217896,991.9899,-1,0.09375, -0.02001953, 1.054199, -0.06546879, -0.7879686, 0.001562595,0.3286996,371,2,0
6368,-1.991058,-0.02429199,991.8391,-1,0.09375, -0.01806641, 1.047852, 0.3564062, -0.7567186, -0.0453124,0.3286996,372,2,0
6387,0.110062,2.211182,991.7586,20.31348,0.08691406, -0.01269531, 1.036133, 0.4814062, 0.3526564, -0.0609374,0.3286996,373,2,0
6403,0.8833391,1.656616,991.7785,-1,0.08544922, -0.005371094, 1.040527, -0.09671879, 0.1026564, -0.0453124,0.3286996,374,2,0
6420,-0.5495719,-1.982483,991.9094,-1,0.08935547, -0.003417969, 1.050293, -0.3779688, -0.1473436, 0.0484376,0.8833391,0,2,0
6438,-1.266027,-1.982483,991.9094,20.32265,0.08837891, -0.01660156, 1.046387, -0.04984379, 0.2901564, 0.0953126,0.8833391,1,2,0
6455,-2.183093,-3.100159,991.9497,-1,0.08251953, -0.01953125, 1.036133, 0.09078121, 0.1964064, 0.0484376,0.8833391,2,2,0
6473,-0.9650512,0.2529907,991.8289,20.32722,0.08056641, -0.01416016, 1.04248, -0.002968788, -0.3817186, -0.0453124,0.8833391,3,2,0
6489,-2.171246,-3.377441,991.9598,-1,0.08300781, -0.02441406, 1.055176, -0.1592188, -0.4129686, -0.0453124,0.8833391,4,2,0
6505,-1.245047,-0.3188477,991.8496,-1,0.08398438, -0.01953125, 1.045898, -0.1435938, -0.08484364, 0.1109376,0.8833391,5,2,0
6521,-0.6346695,-0.02429199,991.8391,-1,0.08740234, -0.007324219, 1.039063, 0.01265621, 0.1339064, 0.2515626,0.8833391,6,2,0
6537,-1.308576,-1.982483,991.9094,-1,0.0859375, -0.002441406, 1.031738, 0.3407812, 0.5089064, 0.0640626,0.8833391,7,2,0
6555,-1.931449,-2.554321,991.9302,20.32265,0.0859375, -0.01123047, 1.045898, -0.3779688, -0.8660936, -0.2015624,0.8833391,8,2,0
6571,-0.839229,0.2529907,991.8289,-1,0.09130859, -0.01953125, 1.062988, -0.6592188, -1.162969, -0.0296874,0.8833391,9,2,0
6587,-1.696775,-2.554321,991.9302,-1,0.09082031, -0.01464844, 1.041504, -0.5342188, -0.06921864, 0.1578126,0.8833391,10,2,0
6605,-2.537108,-3.377441,991.9598,20.31806,0.08789063, -0.01708984, 1.043457, -0.1435938, 1.243281, 0.1890626,0.8833391,11,2,0
6621,-2.398407,-2.259705,991.9196,-1,0.08544922, -0.02636719, 1.058594, -0.09671879, -0.3660936, -0.2328124,0.8833391,12,2,0
6638,-1.631576,-0.8647461,991.8691,-1,0.08740234, -0.02832031, 1.058105, 0.1689062, -1.006719, -0.2484374,0.8833391,13,2,0
6656,-1.80703,-1.982483,991.9094,20.31806,0.08837891, -0.01708984, 1.038574, 0.4970312, -0.3192186, -0.0140624,0.8833391,14,2,0
6672,-0.3567924,1.093445,991.7988,-1,0.08447266, -0.003417969, 1.035645, 0.2470312, 0.8057814, 0.0484376,0.8833391,15,2,0
6688,-0.6107693,-0.8647461,991.8691,-1,0.08105469, -0.006347656, 1.04248, 0.2470312, 0.7276564, 0.0171876,0.8833391,16,2,0
6706,-1.296626,-1.982483,991.9094,20.31348,0.08056641, -0.01367188, 1.047363, -0.09671879, 0.1651564, 0.0171876,0.8833391,17,2,0
6722,-1.639555,-1.982483,991.9094,-1,0.08544922, -0.01367188, 1.037598, -0.3467188, -0.5535936, 0.001562595,0.8833391,18,2,0
6739,-1.94963,-2.259705,991.9196,-1,0.08691406, -0.01367188, 1.04248, -0.3467188, -0.8504686, -0.1078124,0.8833391,19,2,0
6756,-1.966056,-1.982483,991.9094,-1,0.08642578, -0.0234375, 1.054199, -0.3310938, -0.2098436, -0.0921874,0.8833391,20,2,0
6774,-2.11288,-2.259705,991.9196,-1,0.09033203, -0.02392578, 1.047852, -0.09671879, 0.2276564, 0.0640626,0.8833391,21,2,0
6792,-1.488813,-0.8647461,991.8691,20.31348,0.09570313, -0.01220703, 1.044434, -0.4873438, -0.1004686, -0.0140624,0.8833391,22,2,0
6809,-0.6179113,0.2529907,991.8289,-1,0.08837891, -0.006347656, 1.04541, -0.4873438, -0.1160936, -0.1078124,0.8833391,23,2,0
6827,-0.1824603,0.2529907,991.8289,20.32265,0.07763672, -0.01611328, 1.040039, -0.03421879, 0.1495314, -0.1546874,0.8833391,24,2,0
6844,-2.343153,-4.503845,992.0002,-1,0.06933594, -0.02490234, 1.039551, -0.3779688, 0.3995314, 0.0484376,0.8833391,25,2,0
6861,-1.742591,-1.142029,991.8794,-1,0.06054688, -0.02441406, 1.032227, -0.2373438, 0.5714064, 0.2046876,0.8833391,26,2,0
6878,-2.560016,-3.377441,991.9598,20.31348,0.07275391, -0.01269531, 1.046387, -0.9717188, 0.4776564, 0.5015626,0.8833391,27,2,0
6895,-2.27125,-1.982483,991.9094,-1,0.09130859, -0.009277344, 1.054199, -0.3467188, -1.616094, 0.3609376,0.8833391,28,2,0
6913,-3.244573,-4.217896,991.9899,20.31348,0.09765625, -0.01904297, 1.062988, -0.09671879, -1.991094, -0.0921874,0.8833391,29,2,0
6930,-1.214205,0.8161621,991.8086,20.31348,0.1020508, -0.0234375, 1.04248, 0.5751562, -1.428594, -0.0921874,0.8833391,30,2,0
6946,-1.598344,-1.982483,991.9094,-1,0.1103516, -0.01318359, 1.044434, -0.1592188, -0.8660936, 0.0328126,0.8833391,31,2,0
6964,-3.051095,-4.503845,992.0002,20.31348,0.1088867, -0.009765625, 1.068359, -0.4873438, 0.6339064, 0.1265626,0.8833391,32,2,0
6981,-1.399052,0.2529907,991.8289,20.30432,0.09472656, -0.01806641, 1.045898, 0.1845312, 1.868281, 0.0953126,0.8833391,33,2,0
6998,-2.808474,-4.217896,991.9899,-1,0.07128906, -0.02148438, 1.028809, 0.5595312, 2.321406, -0.1078124,0.8833391,34,2,0
7015,-3.929078,-5.049683,992.02,20.3089,0.05810547, -0.02685547, 1.041016, -0.4873438, -0.02234364, -0.3109374,0.8833391,35,2,0
7032,-2.253937,-0.5787964,991.8591,-1,0.06884766, -0.01855469, 1.049316, -0.1592188, -1.162969, 0.0171876,0.8833391,36,2,0
7050,-2.11821,-1.982483,991.9094,20.31348,0.08300781, -0.01220703, 1.042969, 0.2314062, -1.053594, 0.1890626,0.8833391,37,2,0
7066,-2.46624,-2.81427,991.9395,-1,0.08935547, -0.01269531, 1.037109, 0.3564062, -0.1629686, 0.2671876,0.8833391,38,2,0
7081,-0.8250389,0.8161621,991.8086,-1,0.09375, -0.005371094, 1.030762, 0.4501562, -0.3817186, 0.0953126,0.8833391,39,2,0
7098,-1.117811,-1.410583,991.889,-1,0.09912109, -0.006835938, 1.051758, -1.065469, -1.584844, 0.0328126,0.8833391,40,2,0
7114,-0.7053289,-0.2928467,991.8488,-1,0.1015625, -0.005859375, 1.057129, -0.7060938, -1.209844, -0.0765624,0.8833391,41,2,0
7131,-0.6420627,-0.5787964,991.8591,20.31348,0.09570313, -0.02539063, 1.056152, -0.4092188, -0.02234364, 0.1265626,0.8833391,42,2,0
7147,-0.7534044,-0.8647461,991.8691,-1,0.08447266, -0.04394531, 1.048828, 0.3564062, 2.258906, 0.2359376,0.8833391,43,2,0
7164,-1.081994,-1.410583,991.889,-1,0.07617188, -0.03417969, 1.041504, 0.3876562, 1.383906, 0.0328126,0.8833391,44,2,0
7182,-1.389264,-1.696533,991.8992,20.31348,0.07568359, -0.01513672, 1.056152, 0.2001562, 0.3682814, -0.0609374,0.8833391,45,2,0
7198,-1.542898,-1.696533,991.8992,-1,0.07519531, 0.003417969, 1.026367, 0.6064062, -1.147344, -0.2484374,0.8833391,46,2,0
7222,-0.2203933,1.102112,991.7983,-1,0.0859375, -0.005371094, 1.054199, 0.01265621, -0.6942186, 0.0171876,0.8833391,47,2,0
7239,-0.8154884,-1.410583,991.889,-1,0.09521484, -0.01269531, 1.040039, 0.2314062, -0.3348436, 0.0953126,0.8833391,48,2,0
7253,-1.537596,-2.259705,991.9196,-1,0.1074219, -0.02148438, 1.052246, -0.6592188, -0.6942186, 0.0171876,0.8833391,49,2,0
7270,-1.47409,-1.410583,991.889,-1,0.109375, -0.02099609, 1.016113, -0.1123438, -0.8348436, -0.1546874,0.8833391,50,2,0
7288,-1.585312,-1.696533,991.8992,20.31348,0.1005859, -0.01367188, 1.06543, -1.893594, 0.4151564, -0.2953124,0.8833391,51,2,0
7304,-2.06115,-2.536987,991.9293,-1,0.08496094, -0.01611328, 1.072266, -0.7842188, 1.102656, -0.1546874,0.8833391,52,2,0
7319,-1.878841,-1.696533,991.8992,-1,0.08251953, -0.02294922, 1.053711, 0.4032812, 2.133906, 0.0484376,0.8833391,53,2,0
7336,-2.762449,-3.646057,991.9695,-1,0.07421875, -0.04394531, 1.068359, 0.6532812, 2.883906, 0.3453126,0.8833391,54,2,0
7352,-2.649718,-2.536987,991.9293,-1,0.05371094, -0.06835938, 1.053223, -0.01859379, 2.555781, 0.1421876,0.8833391,55,2,0
7369,-3.706756,-4.763794,992.0098,20.30432,0.06738281, -0.03369141, 0.9521484, 3.075156, -0.9442186, -0.4984374,0.8833391,56,2,0
7385,-3.260513,-2.81427,991.9395,-1,0.1157227, 0.04541016, 1.089844, -3.674844, -5.256719, -0.4046874,0.8833391,57,2,0
7401,-2.89875,-2.536987,991.9293,-1,0.1259766, 0.05712891, 1.02002, -3.034219, -4.631719, -0.1859374,0.8833391,58,2,0
7417,-2.440617,-1.982483,991.9094,-1,0.1069336, 0.03662109, 1.037109, -1.299844, 1.993281, 0.2984376,0.8833391,59,2,0
7432,-1.9256,-1.410583,991.889,-1,0.07421875, -0.04931641, 1.09082, -3.377969, 5.055781, 0.4546876,0.8833391,60,2,0
7448,-2.785829,-3.646057,991.9695,-1,0.03808594, -0.1162109, 1.05957, 0.3720312, 5.868281, 0.0640626,0.8833391,61,2,0
7465,-2.241181,-1.696533,991.8992,20.30432,0.03662109, -0.08642578, 1.058594, -0.8779688, -1.209844, 0.0484376,0.8833391,62,2,0
7481,-2.943619,-3.646057,991.9695,-1,0.05517578, -0.04101563, 1.073242, 1.293906, -3.022344, -0.0453124,0.8833391,63,2,0
7496,-3.437782,-3.931946,991.9797,-1,0.08105469, -0.01367188, 1.039063, 2.356406, -4.678594, -0.1390624,0.8833391,64,2,0
7512,-3.25597,-3.074158,991.949,-1,0.1083984, 0.04980469, 1.038086, 3.122031, -3.084844, 0.2984376,0.8833391,65,2,0
7528,-3.451014,-3.646057,991.9695,-1,0.1181641, 0.03076172, 1.04541, 0.3251562, 0.4151564, 0.4546876,0.8833391,66,2,0
7543,-2.430799,-1.410583,991.889,-1,0.1005859, 0.004882813, 1.030273, 2.372031, 0.7432814, 0.1578126,0.8833391,67,2,0
7558,-1.78208,-1.133362,991.8789,-1,0.105957, -0.02734375, 1.051758, -0.1904688, -1.569219, -0.2328124,0.8833391,68,2,0
7575,-2.159534,-2.536987,991.9293,-1,0.08837891, -0.04980469, 1.044922, 0.04390621, 0.5557814, -0.2328124,0.8833391,69,2,0
7593,-1.785059,-1.410583,991.889,20.29974,0.07226563, -0.03808594, 1.048828, -0.4560938, 2.087031, 0.0953126,0.8833391,70,2,0
7609,-2.715558,-3.646057,991.9695,-1,0.07128906, -0.01513672, 1.050293, 0.3407812, 1.430781, 0.1265626,0.8833391,71,2,0
7624,-2.340353,-1.965149,991.9088,-1,0.07910156, -0.007324219, 1.05127, 0.8251562, -0.9754686, 0.001562595,0.8833391,72,2,0
7641,-1.875468,-1.410583,991.889,-1,0.08789063, -0.001953125, 1.035156, 1.106406, -1.287969, -0.0765624,0.8833391,73,2,0
7658,-2.760763,-3.646057,991.9695,20.30432,0.08154297, -0.01318359, 1.022949, 0.6532812, -0.3348436, -0.2015624,0.8833391,74,2,0
7674,-1.947062,-1.133362,991.8789,-1,0.08007813, -0.0078125, 1.029297, 0.05953121, -0.02234364, -0.0140624,0.8833391,75,2,0
7691,-1.956106,-1.965149,991.9088,-1,0.08642578, -0.002441406, 1.038574, -0.6592188, 0.2901564, 0.0484376,0.8833391,76,2,0
7709,-0.284022,1.388062,991.788,20.30432,0.09716797, -0.009277344, 1.055176, -1.221719, -0.4754686, 0.0640626,0.8833391,77,2,0
7724,-0.8473028,-1.410583,991.889,-1,0.09521484, -0.02490234, 1.058594, -0.7373438, -0.7723436, -0.0140624,0.8833391,78,2,0
7739,-1.54917,-2.251038,991.9191,-1,0.08447266, -0.04394531, 1.04834, -0.06546879, 0.5089064, -0.0296874,0.8833391,79,2,0
7756,-1.198291,-0.8474121,991.8685,-1,0.07470703, -0.04980469, 1.052246, -0.1279688, 1.399531, 0.0953126,0.8833391,80,2,0
7772,-1.022852,-0.8474121,991.8685,-1,0.07763672, -0.03222656, 1.056152, 0.6532812, 0.2276564, 0.0640626,0.8833391,81,2,0
7791,-1.77992,-2.536987,991.9293,-1,0.09716797, -0.001464844, 1.04248, 0.7314062, -1.584844, 0.0328126,0.8833391,82,2,0
7808,-2.855933,-3.931946,991.9797,-1,0.09814453, 0.008789063, 1.041016, 0.6689062, -0.1629686, 0.0171876,0.8833391,83,2,0
7825,-2.69646,-2.536987,991.9293,-1,0.08398438, 0.002929688, 1.024414, 0.2157812, 0.4932814, -0.1703124,0.8833391,84,2,0
7842,-1.494653,-0.2928467,991.8488,-1,0.08203125, -0.01367188, 1.037109, -0.3467188, 0.04015636, -0.1390624,0.8833391,85,2,0
7860,-1.171033,-0.8474121,991.8685,20.30432,0.08740234, -0.02490234, 1.052734, -1.018594, -0.3192186, 0.1109376,0.8833391,86,2,0
7876,-0.3073791,0.5562744,991.818,-1,0.08398438, -0.03271484, 1.055176, -0.3467188, 1.102656, 0.1734376,0.8833391,87,2,0
7893,-0.5773956,-0.8474121,991.8685,-1,0.0703125, -0.04199219, 1.058594, 0.05953121, 1.571406, 0.1421876,0.8833391,88,2,0
7908,-0.9939896,-1.410583,991.889,-1,0.06787109, -0.04003906, 1.054199, 0.7314062, -0.2098436, 0.0171876,0.8833391,89,2,0
7923,-2.034074,-3.074158,991.949,-1,0.07958984, -0.02490234, 1.044434, 0.9345312, -1.662969, -0.1234374,0.8833391,90,2,0
7938,-1.440743,-0.8474121,991.8685,-1,0.09521484, -0.003417969, 1.035645, 0.7782812, -2.287969, 0.0328126,0.8833391,91,2,0
7954,-1.988865,-2.536987,991.9293,-1,0.1020508, 0.01513672, 1.035156, 0.5282812, -1.116094, 0.0171876,0.8833391,92,2,0
7972,-1.275164,-0.5614624,991.8582,20.29516,0.09765625, 0.01318359, 1.038574, -0.09671879, 1.055781, 0.0484376,0.8833391,93,2,0
7989,-2.321969,-3.368774,991.9594,-1,0.08984375, -0.01269531, 1.052246, -0.7217188, 0.4776564, -0.0453124,0.8833391,94,2,0
8005,-1.441716,-0.5614624,991.8582,-1,0.08007813, -0.03759766, 1.047363, -0.5967188, -0.03796864, -0.0609374,0.8833391,95,2,0
8023,-1.144564,-0.8474121,991.8685,20.30432,0.07275391, -0.04931641, 1.055176, -0.2529688, 0.7432814, 0.0171876,0.8833391,96,2,0
8039,0.1217488,1.388062,991.788,-1,0.06787109, -0.04443359, 1.058105, 0.3720312, 1.071406, 0.1578126,0.8833391,97,2,0
8054,-1.476204,-3.074158,991.949,-1,0.07617188, -0.02294922, 1.051758, 0.7157812, 0.1807814, 0.0953126,0.8833391,98,2,0
8070,-1.434727,-1.39325,991.8883,-1,0.09033203, -0.003417969, 1.039551, 1.278281, -1.897344, -0.0609374,0.8833391,99,2,0
8093,-1.14107,-0.8474121,991.8685,-1,0.09960938, 0.005859375, 1.030273, 0.8095312, -1.662969, -0.2015624,0.8833391,100,2,0
8109,-1.969003,-2.796936,991.9387,-1,0.09667969, 0.004394531, 1.029297, 0.4345312, 0.1495314, -0.0921874,0.8833391,101,2,0
8126,-1.408207,-0.8474121,991.8685,-1,0.08789063, -0.009765625, 1.047852, -0.6279688, 0.8682814, 0.0796876,0.8833391,102,2,0
8141,-2.241183,-3.074158,991.949,-1,0.08056641, -0.02392578, 1.046387, -0.1904688, 1.165156, 0.0953126,0.8833391,103,2,0
8159,-2.65767,-3.074158,991.949,20.29516,0.07519531, -0.03271484, 1.04834, -0.1904688, 0.6339064, 0.0640626,0.8833391,104,2,0
8175,-1.193673,0.2703247,991.8283,-1,0.07177734, -0.02783203, 1.061035, -0.1592188, 0.1026564, -0.0453124,0.8833391,105,2,0
8192,-2.133915,-3.074158,991.949,-1,0.078125, -0.02392578, 1.043945, 0.8564062, -0.5223436, 0.0484376,0.8833391,106,2,0
8210,-1.347689,-0.5614624,991.8582,20.29974,0.08251953, -0.02197266, 1.050293, 0.7626562, -0.7723436, 0.0171876,0.8833391,107,2,0
8226,-0.9545756,-0.5614624,991.8582,-1,0.09130859, -0.002929688, 1.036621, 1.012656, -0.8817186, -0.0609374,0.8833391,108,2,0
8241,-2.161675,-3.368774,991.9594,-1,0.09619141, 0.0, 1.040039, 0.4189062, -0.6473436, 0.0328126,0.8833391,109,2,0
8257,-0.2438624,1.67395,991.7777,-1,0.09130859, 0.0009765625, 1.032715, 0.4032812, 0.008906364, -0.0609374,0.8833391,110,2,0
8273,-1.65901,-3.074158,991.949,-1,0.09326172, -0.008789063, 1.047363, -0.08109379, 0.04015636, -0.0140624,0.8833391,111,2,0
8291,-2.513892,-3.368774,991.9594,20.28599,0.08789063, -0.01953125, 1.046875, -0.2217188, 0.1182814, -0.0296874,0.8833391,112,2,0
8307,-2.655414,-2.796936,991.9387,-1,0.08398438, -0.02392578, 1.051758, -0.08109379, 0.4151564, 0.0328126,0.8833391,113,2,0
8324,-1.608438,-0.5614624,991.8582,-1,0.07617188, -0.02880859, 1.048828, -0.01859379, 0.6964064, -0.0765624,0.8833391,114,2,0
8342,-1.227925,-0.8474121,991.8685,20.29516,0.07324219, -0.0234375, 1.047363, 0.5126562, 0.3057814, -0.0140624,0.8833391,115,2,0
8357,-1.180644,-1.133362,991.8789,-1,0.07470703, -0.01611328, 1.04248, 0.7157812, -0.5223436, 0.0328126,0.8833391,116,2,0
8372,-1.429921,-1.679199,991.8985,-1,0.08203125, -0.007324219, 1.046387, 0.5751562, -0.9754686, 0.0640626,0.8833391,117,2,0
8389,-1.138667,-0.8474121,991.8685,-1,0.09326172, -0.0009765625, 1.036133, 0.4501562, -1.162969, 0.0640626,0.8833391,118,2,0
8407,-0.9930394,-0.8474121,991.8685,20.29516,0.09521484, -0.007324219, 1.047852, 0.1689062, -0.8504686, 0.0640626,0.8833391,119,2,0
8423,-1.479094,-1.965149,991.9088,-1,0.09326172, -0.01464844, 1.046387, -0.04984379, -0.1160936, 0.0484376,0.8833391,120,2,0
8440,-2.138015,-2.796936,991.9387,-1,0.08935547, -0.02148438, 1.048828, -0.06546879, 0.6182814, 0.1109376,0.8833391,121,2,0
8456,-1.206794,-0.2755737,991.848,-1,0.08203125, -0.02587891, 1.048828, 0.1376562, 0.5714064, 0.001562595,0.8833391,122,2,0
8473,-2.140476,-3.074158,991.949,20.29058,0.08251953, -0.02294922, 1.042969, 0.1532812, 0.2276564, -0.0765624,0.8833391,123,2,0
8488,-2.607317,-3.074158,991.949,-1,0.08007813, -0.008300781, 1.041992, 0.01265621, -0.5223436, -0.1390624,0.8833391,124,2,0
8504,-2.840737,-3.074158,991.949,-1,0.0859375, -0.001464844, 1.038574, -0.2060938, -0.6473436, -0.0453124,0.8833391,125,2,0
8522,-2.818837,-2.796936,991.9387,-1,0.09130859, 0.005859375, 1.033203, -0.4873438, -0.3817186, -0.0921874,0.8833391,126,2,0
8537,-1.547205,-0.2755737,991.848,-1,0.09423828, -0.00390625, 1.052246, -0.9873438, -0.1317186, -0.0140624,0.8833391,127,2,0
8555,-2.172071,-2.796936,991.9387,20.28599,0.08740234, -0.02050781, 1.050293, -0.4717188, 0.1026564, -0.1234374,0.8833391,128,2,0
8572,-2.900397,-3.628723,991.9688,-1,0.08544922, -0.04296875, 1.078125, -0.6279688, 0.7901564, 0.1109376,0.8833391,129,2,0
8590,-1.873904,-0.8474121,991.8685,20.28599,0.08154297, -0.03955078, 1.027344, 0.8407812, 0.1182814, 0.0328126,0.8833391,130,2,0
8606,-1.776552,-1.679199,991.8985,-1,0.08154297, -0.01171875, 1.020508, -0.1123438, -0.05359364, 0.0484376,0.8833391,131,2,0
8622,-1.454957,-1.133362,991.8789,-1,0.09912109, 0.01220703, 1.068848, -0.2060938, -0.7723436, 0.0640626,0.8833391,132,2,0
8640,-2.125947,-2.796936,991.9387,20.29516,0.08056641, 0.004882813, 1.066406, 0.2782812, 0.4776564, -0.0921874,0.8833391,133,2,0
8656,-2.318466,-2.510986,991.9285,-1,0.07324219, -0.01416016, 0.9926758, 2.325156, 1.337031, -0.0609374,0.8833391,134,2,0
8672,-2.141808,-1.965149,991.9088,-1,0.06591797, -0.03271484, 1.040039, -1.143594, 1.446406, 0.1265626,0.8833391,135,2,0
8688,-1.910503,-1.679199,991.8985,-1,0.06640625, -0.01757813, 1.053711, -0.7373438, -1.491094, -0.1546874,0.8833391,136,2,0
8706,-1.937826,-1.965149,991.9088,20.29516,0.09033203, -0.004394531, 1.035645, -1.065469, -1.819219, 0.3453126,0.8833391,137,2,0
8722,-1.665538,-1.39325,991.8883,-1,0.1015625, -0.009277344, 1.06543, -0.9717188, -0.9598436, 0.2046876,0.8833391,138,2,0
8737,-1.815343,-1.965149,991.9088,-1,0.109375, -0.01855469, 1.041992, -0.1904688, -1.444219, -0.1859374,0.8833391,139,2,0
8753,-3.007952,-4.200562,991.9893,-1,0.09228516, -0.03222656, 1.059082, -0.1748438, 0.8370314, -0.0453124,0.8833391,140,2,0
8768,-1.641763,-0.2755737,991.848,-1,0.08544922, -0.02392578, 1.046875, -0.8310938, 1.805781, 0.2515626,0.8833391,141,2,0
8785,-0.9586684,-0.2755737,991.848,-1,0.08007813, -0.01318359, 1.041504, 0.2314062, 1.118281, 0.1265626,0.8833391,142,2,0
8803,-2.579615,-4.200562,991.9893,20.28599,0.07666016, -0.01025391, 1.047852, -0.1279688, -0.5223436, -0.1078124,0.8833391,143,2,0
8819,-3.24281,-3.906006,991.9789,-1,0.07861328, -0.01318359, 1.041504, 0.1689062, 0.1651564, -0.0765624,0.8833391,144,2,0
8838,-2.31803,-1.39325,991.8883,20.29516,0.07714844, -0.01074219, 1.039551, -0.03421879, 0.2432814, -0.0296874,0.8833391,145,2,0
8855,-2.557483,-2.796936,991.9387,-1,0.08837891, -0.01220703, 1.044434, -0.2998438, -0.5379686, 0.0484376,0.8833391,146,2,0
8870,-3.937891,-5.318298,992.0295,-1,0.09814453, -0.01611328, 1.04834, -0.06546879, -0.7098436, 0.0953126,0.8833391,147,2,0
8888,-3.506024,-3.074158,991.949,20.29516,0.09667969, -0.02587891, 1.062988, -0.6279688, -0.2879686, -0.0921874,0.8833391,148,2,0
8905,-2.592612,-1.679199,991.8985,-1,0.08886719, -0.02587891, 1.029785, 0.7314062, 0.2589064, -0.1546874,0.8833391,149,2,0
8921,-3.955455,-5.318298,992.0295,-1,0.08105469, -0.01855469, 1.049316, -0.4717188, 1.055781, 0.0328126,0.8833391,150,2,0
8939,-3.376195,-2.796936,991.9387,20.28599,0.07373047, -0.01660156, 1.04248, 0.2157812, 1.196406, 0.0328126,0.8833391,151,2,0
8965,-2.111804,-0.8474121,991.8685,20.29058,0.07861328, -0.01025391, 1.041504, 0.2470312, -0.3035936, 0.0953126,0.8833391,152,2,0
8982,-1.752527,-1.39325,991.8883,-1,0.0859375, -0.01025391, 1.04541, -0.3310938, -1.084844, -0.0921874,0.8833391,153,2,0
8998,-2.976544,-4.200562,991.9893,-1,0.08544922, -0.01757813, 1.037109, 0.2470312, -0.5848436, -0.1078124,0.8833391,154,2,0
9015,-2.327872,-1.679199,991.8985,20.29516,0.08496094, -0.02246094, 1.052246, -0.3935938, 0.08703136, 0.0484376,0.8833391,155,2,0
9032,-1.587642,-0.8474121,991.8685,-1,0.08984375, -0.02148438, 1.049316, -0.08109379, -0.1473436, 0.1578126,0.8833391,156,2,0
9048,-2.3309,-3.074158,991.949,-1,0.08740234, -0.01416016, 1.046387, -0.2998438, 0.02453136, 0.0953126,0.8833391,157,2,0
9066,-0.4714191,1.388062,991.788,-1,0.08349609, -0.01611328, 1.04541, 0.1689062, 0.4151564, 0.0171876,0.8833391,158,2,0
9082,-1.491203,-2.510986,991.9285,-1,0.07763672, -0.01660156, 1.041016, 0.2001562, 0.04015636, -0.0765624,0.8833391,159,2,0
9099,-1.585201,-1.679199,991.8985,-1,0.07910156, -0.01708984, 1.044434, 0.07515621, -0.1785936, -0.0140624,0.8833391,160,2,0
9117,-0.9303874,-0.2755737,991.848,20.29516,0.08789063, -0.01416016, 1.043457, 0.04390621, -0.06921864, 0.1265626,0.8833391,161,2,0
9133,-0.8888997,-0.8474121,991.8685,-1,0.09033203, -0.01367188, 1.046387, -0.08109379, -0.03796864, 0.0484376,0.8833391,162,2,0
9149,-1.427024,-1.965149,991.9088,-1,0.0859375, -0.02050781, 1.048828, -0.09671879, -0.1629686, -0.0140624,0.8833391,163,2,0
9164,-1.137218,-0.8474121,991.8685,-1,0.08251953, -0.02050781, 1.04541, -0.1279688, -0.3035936, -0.0921874,0.8833391,164,2,0
9182,-0.706396,-0.2755737,991.848,20.29516,0.08154297, -0.01904297, 1.041992, 0.04390621, -0.2723436, 0.0328126,0.8833391,165,2,0
9198,-1.608691,-2.510986,991.9285,-1,0.0859375, -0.01367188, 1.046875, -0.2998438, -0.2254686, 0.1109376,0.8833391,166,2,0
9214,-3.32052,-5.032349,992.0192,-1,0.0859375, -0.01318359, 1.046387, 0.05953121, 0.5557814, 0.1109376,0.8833391,167,2,0
9230,-2.083966,-0.8474121,991.8685,-1,0.08544922, -0.01660156, 1.04541, 0.07515621, 0.3995314, 0.001562595,0.8833391,168,2,0
9248,-2.440451,-2.796936,991.9387,20.29516,0.07910156, -0.02197266, 1.041992, 0.2626562, -0.06921864, -0.1078124,0.8833391,169,2,0
9263,-1.358012,-0.2755737,991.848,-1,0.08007813, -0.015625, 1.046387, -0.09671879, -0.7410936, -0.0609374,0.8833391,170,2,0
9280,-0.8167931,-0.2755737,991.848,-1,0.0859375, -0.01464844, 1.047363, 0.1220312, -0.6160936, -0.0609374,0.8833391,171,2,0
9296,-0.5461834,-0.2755737,991.848,-1,0.08642578, -0.01025391, 1.039063, -0.04984379, 0.1651564, 0.1421876,0.8833391,172,2,0
9314,-0.4108786,-0.2755737,991.848,20.28599,0.0859375, -0.01806641, 1.051758, -0.1748438, 0.3214064, 0.0953126,0.8833391,173,2,0
9331,-1.045039,-1.679199,991.8985,-1,0.08154297, -0.02050781, 1.03418, 0.4345312, -0.2567186, -0.1546874,0.8833391,174,2,0
9347,-1.362119,-1.679199,991.8985,-1,0.0859375, -0.01855469, 1.044922, 0.02828121, -0.6629686, -0.0453124,0.8833391,175,2,0
9365,-3.340209,-5.318298,992.0295,20.29058,0.08300781, -0.015625, 1.042969, 0.2626562, -0.3504686, 0.0484376,0.8833391,176,2,0
9381,-2.925598,-2.510986,991.9285,-1,0.0859375, -0.01611328, 1.046387, -0.002968788, 0.04015636, 0.0640626,0.8833391,177,2,0
9397,-3.693054,-4.46051,991.9987,-1,0.0859375, -0.01660156, 1.046387, 0.3251562, 0.4932814, 0.1109376,0.8833391,178,2,0
9416,-3.10202,-2.510986,991.9285,20.28599,0.08398438, -0.01806641, 1.044434, -0.01859379, -0.3660936, 0.0171876,0.8833391,179,2,0
9431,-2.806503,-2.510986,991.9285,-1,0.08447266, -0.01855469, 1.041504, -0.04984379, -0.7098436, -0.0609374,0.8833391,180,2,0
9447,-3.217613,-3.628723,991.9688,-1,0.08691406, -0.01855469, 1.05127, -0.3154688, -0.4442186, -0.0453124,0.8833391,181,2,0
9463,-2.8643,-2.510986,991.9285,-1,0.08691406, -0.01318359, 1.043457, 0.2314062, 0.2901564, 0.0484376,0.8833391,182,2,0
9481,-2.544668,-2.225037,991.9182,20.29058,0.0859375, -0.01708984, 1.045898, 0.05953121, 0.1495314, 0.0171876,0.8833391,183,2,0
9498,-1.968959,-1.39325,991.8883,-1,0.0859375, -0.01757813, 1.043945, -0.002968788, 0.07140636, -0.0140624,0.8833391,184,2,0
9513,-2.521558,-3.074158,991.949,-1,0.08154297, -0.01855469, 1.037109, 0.1376562, 0.008906364, -0.0609374,0.8833391,185,2,0
9532,-1.957404,-1.39325,991.8883,20.28599,0.08056641, -0.01611328, 1.048828, -0.2060938, -0.05359364, 0.0171876,0.8833391,186,2,0
9548,-2.234195,-2.510986,991.9285,-1,0.08398438, -0.01367188, 1.04541, 0.1064062, -0.1785936, 0.0328126,0.8833391,187,2,0
9564,-1.813722,-1.39325,991.8883,-1,0.08789063, -0.01953125, 1.047363, -0.002968788, -0.1785936, 0.0640626,0.8833391,188,2,0
9583,-2.162354,-2.510986,991.9285,20.29058,0.08691406, -0.02197266, 1.047363, 0.04390621, -0.1473436, 0.0484376,0.8833391,189,2,0
9599,-1.920777,-1.679199,991.8985,-1,0.08496094, -0.01757813, 1.043457, 0.07515621, -0.006718636, 0.001562595,0.8833391,190,2,0
9618,-1.657013,-1.39325,991.8883,20.28599,0.08544922, -0.01464844, 1.044434, -0.01859379, -0.1004686, 0.0171876,0.8833391,191,2,0
9634,-2.226974,-2.796936,991.9387,-1,0.08789063, -0.01123047, 1.044434, 0.07515621, -0.4754686, 0.0171876,0.8833391,192,2,0
9653,-1.810112,-1.39325,991.8883,20.29516,0.08642578, -0.01660156, 1.049805, -0.03421879, 0.008906364, 0.0328126,0.8833391,193,2,0
9669,-1.601681,-1.39325,991.8883,-1,0.08349609, -0.01806641, 1.044434, 0.1376562, 0.2745314, 0.0484376,0.8833391,194,2,0
9686,-1.783415,-1.965149,991.9088,-1,0.08203125, -0.02246094, 1.044434, -0.1279688, 0.04015636, 0.0171876,0.8833391,195,2,0
9701,-1.588332,-1.39325,991.8883,-1,0.08447266, -0.02099609, 1.046875, 0.01265621, -0.2254686, 0.0171876,0.8833391,196,2,0
9719,-1.490791,-1.39325,991.8883,20.29058,0.0859375, -0.01416016, 1.045898, 0.09078121, -0.1785936, -0.0140624,0.8833391,197,2,0
9735,-1.44202,-1.39325,991.8883,-1,0.08300781, -0.01318359, 1.047852, -0.1123438, 0.08703136, 0.0484376,0.8833391,198,2,0
9752,-2.119478,-2.796936,991.9387,-1,0.08496094, -0.015625, 1.041992, -0.01859379, -0.1004686, 0.001562595,0.8833391,199,2,0
9767,-2.458207,-2.796936,991.9387,-1,0.08496094, -0.01660156, 1.043457, -0.03421879, -0.1942186, -0.0296874,0.8833391,200,2,0
9785,-1.925728,-1.39325,991.8883,20.29058,0.08349609, -0.01904297, 1.041504, 0.04390621, -0.1629686, 0.0171876,0.8833391,201,2,0
9801,-1.100651,-0.2755737,991.848,-1,0.08691406, -0.015625, 1.04834, -0.1279688, -0.1317186, 0.0328126,0.8833391,202,2,0
9827,-1.519899,-1.939148,991.908,20.28599,0.08447266, -0.01855469, 1.048828, -0.01859379, 0.1651564, 0.0328126,0.8833391,203,2,0
9843,-1.456574,-1.39325,991.8883,-1,0.08447266, -0.02148438, 1.045898, 0.1376562, -0.2098436, -0.0453124,0.8833391,204,2,0
9861,-0.7230992,0.01037598,991.8376,20.29058,0.08447266, -0.02294922, 1.041016, 0.1220312, -0.2723436, -0.0140624,0.8833391,205,2,0
9878,-1.617043,-2.510986,991.9285,-1,0.08300781, -0.01464844, 1.047363, 0.04390621, 0.04015636, 0.0171876,0.8833391,206,2,0
9896,-2.622883,-3.628723,991.9688,20.28599,0.0859375, -0.01171875, 1.044434, 0.09078121, 0.05578136, 0.0171876,0.8833391,207,2,0
9912,-2.151041,-1.679199,991.8985,-1,0.0859375, -0.01513672, 1.043457, 0.01265621, -0.06921864, 0.0484376,0.8833391,208,2,0
9928,-1.772145,-1.39325,991.8883,-1,0.0859375, -0.01904297, 1.045898, 0.04390621, -0.1160936, 0.001562595,0.8833391,209,2,0
9944,-2.141566,-2.510986,991.9285,-1,0.08544922, -0.02001953, 1.043945, 0.01265621, -0.006718636, 0.001562595,0.8833391,210,2,0
9962,-2.326276,-2.510986,991.9285,20.27683,0.08398438, -0.01904297, 1.04541, 0.05953121, -0.05359364, 0.001562595,0.8833391,211,2,0
9978,-1.573844,-0.8214111,991.8677,-1,0.08642578, -0.01416016, 1.046387, -0.1123438, -0.06921864, 0.0953126,0.8833391,212,2,0
9995,-1.89944,-2.225037,991.9182,-1,0.08544922, -0.015625, 1.047852, 0.09078121, 0.1339064, 0.0328126,0.8833391,213,2,0
10010,-2.062238,-2.225037,991.9182,-1,0.08544922, -0.01953125, 1.048828, -0.03421879, 0.1182814, 0.0171876,0.8833391,214,2,0
10026,-2.286612,-2.510986,991.9285,-1,0.08398438, -0.01806641, 1.041016, 0.2001562, -0.2879686, -0.0453124,0.8833391,215,2,0
10044,-1.839931,-1.39325,991.8883,20.28141,0.08105469, -0.02001953, 1.046875, -0.1435938, -0.05359364, -0.0140624,0.8833391,216,2,0
10060,-1.88954,-1.939148,991.908,-1,0.08398438, -0.01513672, 1.043945, -0.002968788, -0.08484364, -0.0296874,0.8833391,217,2,0
10077,-1.641395,-1.39325,991.8883,-1,0.08642578, -0.01464844, 1.045898, -0.01859379, -0.1629686, 0.0640626,0.8833391,218,2,0
10094,-0.9584841,-0.2755737,991.848,20.28599,0.08740234, -0.01757813, 1.046387, 0.07515621, -0.1317186, -0.0140624,0.8833391,219,2,0
10110,-1.734735,-2.510986,991.9285,-1,0.08447266, -0.02197266, 1.042969, 0.1689062, 0.1182814, 0.0484376,0.8833391,220,2,0
10126,-1.563992,-1.39325,991.8883,-1,0.08154297, -0.02050781, 1.047852, 0.09078121, 0.07140636, -0.0453124,0.8833391,221,2,0
10141,-2.310439,-3.056885,991.9482,-1,0.08349609, -0.01660156, 1.045898, 0.02828121, -0.1942186, -0.0296874,0.8833391,222,2,0
10158,-0.5911629,1.128113,991.7974,-1,0.08642578, -0.01269531, 1.046875, 0.05953121, -0.3973436, 0.0171876,0.8833391,223,2,0
10176,-0.8492619,-1.107361,991.8779,20.27683,0.08789063, -0.01464844, 1.044434, 0.02828121, -0.006718636, -0.0140624,0.8833391,224,2,0
10192,-0.5624178,-0.2755737,991.848,-1,0.08496094, -0.01757813, 1.04248, 0.1689062, 0.2120314, 0.001562595,0.8833391,225,2,0
10210,-0.1330461,0.2963257,991.8275,20.28599,0.08154297, -0.02001953, 1.047363, -0.1123438, 0.1182814, 0.0484376,0.8833391,226,2,0
10226,-0.3342537,-0.5354614,991.8574,-1,0.08300781, -0.01757813, 1.043457, 0.01265621, -0.1629686, 0.001562595,0.8833391,227,2,0
10242,-0.1619389,0.01037598,991.8376,-1,0.08447266, -0.01660156, 1.044922, -0.04984379, -0.2098436, 0.0640626,0.8833391,228,2,0
10261,-1.336463,-2.510986,991.9285,20.28599,0.08447266, -0.01318359, 1.046387, 0.07515621, -0.1160936, -0.0140624,0.8833391,229,2,0
10277,-1.923724,-2.510986,991.9285,-1,0.08642578, -0.01660156, 1.046875, -0.01859379, -0.05359364, 0.001562595,0.8833391,230,2,0
10294,-0.9566742,0.01037598,991.8376,-1,0.08691406, -0.01855469, 1.04541, -0.002968788, -0.2098436, -0.0140624,0.8833391,231,2,0
10312,-1.590855,-2.225037,991.9182,20.28141,0.08496094, -0.01904297, 1.046875, -0.03421879, -0.2254686, -0.0140624,0.8833391,232,2,0
10328,-1.206133,-0.8214111,991.8677,-1,0.08398438, -0.01904297, 1.046387, 0.02828121, 0.008906364, -0.0296874,0.8833391,233,2,0
10347,-0.5978786,0.01037598,991.8376,20.28141,0.08105469, -0.015625, 1.043945, 0.09078121, 0.1807814, 0.001562595,0.8833391,234,2,0
10363,-0.1507765,0.2963257,991.8275,-1,0.08349609, -0.01318359, 1.044434, 0.04390621, 0.1339064, 0.0484376,0.8833391,235,2,0
10378,-0.07020025,0.01037598,991.8376,-1,0.08398438, -0.01464844, 1.046875, -0.08109379, -0.1942186, 0.0328126,0.8833391,236,2,0
10397,-1.290593,-2.510986,991.9285,20.28599,0.08642578, -0.01855469, 1.044922, 0.01265621, -0.3504686, 0.001562595,0.8833391,237,2,0
10413,-2.316683,-3.342773,991.9584,-1,0.08496094, -0.02197266, 1.045898, -0.01859379, -0.2567186, 0.0328126,0.8833391,238,2,0
10428,-3.531572,-4.74646,992.009,-1,0.08544922, -0.02050781, 1.044922, 0.05953121, 0.02453136, -0.0140624,0.8833391,239,2,0
10444,-4.139016,-4.74646,992.009,-1,0.08447266, -0.01611328, 1.046387, -0.03421879, 0.1807814, 0.0171876,0.8833391,240,2,0
10460,-3.740895,-3.342773,991.9584,-1,0.08300781, -0.01416016, 1.044434, 0.04390621, 0.07140636, -0.0140624,0.8833391,241,2,0
10476,-2.982965,-2.225037,991.9182,-1,0.08349609, -0.01416016, 1.046387, 0.04390621, -0.3192186, 0.001562595,0.8833391,242,2,0
10494,-2.746976,-2.510986,991.9285,20.28599,0.08447266, -0.02001953, 1.046875, 0.01265621, -0.3817186, -0.0296874,0.8833391,243,2,0
10510,-2.486006,-2.225037,991.9182,-1,0.08398438, -0.01953125, 1.043945, 0.02828121, -0.02234364, 0.0171876,0.8833391,244,2,0
10525,-1.653709,-0.8214111,991.8677,-1,0.08349609, -0.01757813, 1.04834, 0.05953121, 0.07140636, 0.0953126,0.8833391,245,2,0
10541,-1.796428,-1.939148,991.908,-1,0.08447266, -0.01708984, 1.044434, 0.01265621, 0.008906364, 0.0640626,0.8833391,246,2,0
10560,-2.153707,-2.510986,991.9285,20.28599,0.0859375, -0.01367188, 1.047363, -0.06546879, -0.08484364, 0.0484376,0.8833391,247,2,0
10576,-2.332347,-2.510986,991.9285,-1,0.08349609, -0.01806641, 1.043945, 0.09078121, -0.1317186, -0.0453124,0.8833391,248,2,0
10593,-3.119176,-3.906006,991.9789,-1,0.08398438, -0.02050781, 1.046387, -0.01859379, -0.2254686, -0.0453124,0.8833391,249,2,0
10611,-1.970294,-0.8214111,991.8677,20.28599,0.08544922, -0.01904297, 1.04541, -0.002968788, -0.05359364, 0.0484376,0.8833391,250,2,0
10630,-1.122934,-0.2755737,991.848,20.28141,0.08496094, -0.01660156, 1.041016, 0.04390621, 0.08703136, 0.0640626,0.8833391,251,2,0
10647,-1.258092,-1.39325,991.8883,-1,0.08544922, -0.01367188, 1.048828, -0.08109379, -0.006718636, -0.0296874,0.8833391,252,2,0
10663,-1.59862,-1.939148,991.908,-1,0.08300781, -0.01611328, 1.046387, 0.05953121, -0.1317186, -0.0609374,0.8833391,253,2,0
10687,-2.613672,-3.628723,991.9688,-1,0.08496094, -0.02050781, 1.044922, 0.1376562, -0.2098436, 0.0328126,0.8833391,254,2,0
10703,-2.562329,-2.510986,991.9285,-1,0.08398438, -0.01904297, 1.044922, 0.07515621, -0.1004686, 0.001562595,0.8833391,255,2,0
10720,-1.275976,0.01037598,991.8376,-1,0.08349609, -0.01660156, 1.045898, 0.04390621, 0.1964064, 0.0328126,0.8833391,256,2,0
10738,-1.607562,-1.939148,991.908,20.28599,0.08203125, -0.01464844, 1.044922, -0.002968788, 0.02453136, 0.001562595,0.8833391,257,2,0
10755,-0.09674984,1.414063,991.7873,-1,0.08544922, -0.01660156, 1.053223, -0.03421879, -0.2723436, 0.0171876,0.8833391,258,2,0
10772,-0.6020553,-1.107361,991.8779,20.27225,0.08691406, -0.01953125, 1.038574, 0.1532812, -0.3973436, -0.0453124,0.8833391,259,2,0
10789,-1.270602,-1.939148,991.908,-1,0.0859375, -0.02050781, 1.051758, -0.1748438, 0.1339064, 0.001562595,0.8833391,260,2,0
10808,-0.487138,0.2963257,991.8275,20.27225,0.08544922, -0.01855469, 1.041504, 0.2001562, 0.1339064, 0.0328126,0.8833391,261,2,0
10825,-1.213143,-1.939148,991.908,-1,0.08496094, -0.015625, 1.04541, 0.01265621, 0.1182814, 0.0171876,0.8833391,262,2,0
10843,-1.433171,-1.653198,991.8976,20.27683,0.08300781, -0.01513672, 1.044434, 0.09078121, -0.2254686, -0.0453124,0.8833391,263,2,0
10859,-1.686159,-1.939148,991.908,-1,0.08447266, -0.01708984, 1.044434, 0.01265621, -0.1473436, -0.0296874,0.8833391,264,2,0
10876,-1.253785,-0.8214111,991.8677,-1,0.08544922, -0.01904297, 1.044434, 0.04390621, -0.2254686, 0.001562595,0.8833391,265,2,0
10894,-0.8946233,-0.5354614,991.8574,20.28141,0.08691406, -0.01904297, 1.045898, -0.01859379, -0.1629686, 0.0953126,0.8833391,266,2,0
10909,-1.143936,-1.39325,991.8883,-1,0.08544922, -0.01953125, 1.04834, 0.05953121, 0.1964064, 0.0171876,0.8833391,267,2,0
10925,-2.659248,-4.174561,991.9885,-1,0.08300781, -0.01757813, 1.045898, 0.1064062, 0.2276564, 0.0640626,0.8833391,268,2,0
10941,-2.858067,-3.056885,991.9482,-1,0.08251953, -0.01660156, 1.040527, 0.05953121, -0.1629686, 0.0171876,0.8833391,269,2,0
10956,-3.10042,-3.342773,991.9584,-1,0.08300781, -0.01367188, 1.043945, 0.02828121, -0.2254686, 0.001562595,0.8833391,270,2,0
10971,-1.402047,0.2963257,991.8275,-1,0.08496094, -0.015625, 1.041992, 0.02828121, -0.2410936, -0.0140624,0.8833391,271,2,0
10987,-2.37241,-3.342773,991.9584,-1,0.08691406, -0.01464844, 1.04834, 0.05953121, -0.2098436, 0.001562595,0.8833391,272,2,0
11003,-2.298723,-2.225037,991.9182,-1,0.08691406, -0.01953125, 1.049316, -0.06546879, -0.1942186, 0.001562595,0.8833391,273,2,0
11021,-1.703042,-1.107361,991.8779,20.27683,0.08398438, -0.01904297, 1.04541, 0.1220312, 0.08703136, 0.0171876,0.8833391,274,2,0
11037,-0.7033582,0.2963257,991.8275,-1,0.08447266, -0.01855469, 1.041504, 0.04390621, 0.1182814, 0.001562595,0.8833391,275,2,0
11052,-1.880121,-3.056885,991.9482,-1,0.08349609, -0.01464844, 1.044434, -0.01859379, 0.04015636, 0.0484376,0.8833391,276,2,0
11068,-1.077848,-0.2755737,991.848,-1,0.08349609, -0.01318359, 1.04834, -0.04984379, -0.2098436, -0.0296874,0.8833391,277,2,0
11083,-0.2478166,0.5822144,991.8172,-1,0.08496094, -0.01660156, 1.041992, 0.1064062, -0.1629686, -0.0453124,0.8833391,278,2,0
11099,-2.497138,-4.74646,992.009,-1,0.08691406, -0.02050781, 1.046387, -0.1279688, -0.2879686, 0.001562595,0.8833391,279,2,0
11117,-2.361087,-2.225037,991.9182,20.28599,0.08544922, -0.02099609, 1.047363, 0.07515621, -0.1317186, 0.001562595,0.8833391,280,2,0
11134,-2.150118,-1.939148,991.908,-1,0.08251953, -0.01757813, 1.043945, 0.09078121, 0.1964064, 0.0640626,0.8833391,281,2,0
11152,-2.044633,-1.939148,991.908,20.28599,0.08447266, -0.015625, 1.044922, -0.03421879, -0.1160936, 0.0484376,0.8833391,282,2,0
11170,-1.433022,-0.8214111,991.8677,-1,0.08349609, -0.01416016, 1.043457, 0.02828121, -0.3817186, -0.0453124,0.8833391,283,2,0
11188,-1.686085,-1.939148,991.908,20.28141,0.08544922, -0.01416016, 1.043945, -0.06546879, -0.08484364, 0.0171876,0.8833391,284,2,0
11204,-2.371485,-3.056885,991.9482,-1,0.0859375, -0.01806641, 1.04541, 0.01265621, -0.1317186, -0.0296874,0.8833391,285,2,0
11220,-2.155316,-1.939148,991.908,-1,0.08789063, -0.02050781, 1.047852, -0.06546879, -0.06921864, -0.0140624,0.8833391,286,2,0
11238,-2.047232,-1.939148,991.908,20.28599,0.08496094, -0.01904297, 1.046387, 0.04390621, 0.1339064, 0.0796876,0.8833391,287,2,0
11254,-1.99319,-1.939148,991.908,-1,0.08203125, -0.01660156, 1.043945, 0.1064062, 0.1807814, 0.0484376,0.8833391,288,2,0
11270,-1.966169,-1.939148,991.908,-1,0.08203125, -0.01708984, 1.043945, 0.04390621, -0.05359364, -0.0140624,0.8833391,289,2,0
11285,-2.368552,-2.770935,991.9379,-1,0.08203125, -0.01464844, 1.043945, 0.09078121, -0.2254686, -0.0140624,0.8833391,290,2,0
11302,-2.15385,-1.939148,991.908,-1,0.08642578, -0.01464844, 1.047852, -0.1279688, -0.3348436, 0.0484376,0.8833391,291,2,0
11320,-2.046499,-1.939148,991.908,20.27225,0.08935547, -0.015625, 1.040527, 0.1220312, -0.3348436, 0.001562595,0.8833391,292,2,0
11336,-1.992824,-1.939148,991.908,-1,0.08935547, -0.02050781, 1.047363, -0.06546879, -0.1785936, 0.0171876,0.8833391,293,2,0
11352,-2.10893,-2.225037,991.9182,-1,0.08789063, -0.02099609, 1.046875, 0.1064062, 0.1026564, -0.0921874,0.8833391,294,2,0
11370,-2.582907,-3.056885,991.9482,20.28141,0.08349609, -0.01953125, 1.041992, 0.09078121, 0.1807814, 0.001562595,0.8833391,295,2,0
11385,-1.702159,-0.8214111,991.8677,-1,0.08154297, -0.01660156, 1.044922, 0.05953121, 0.07140636, -0.0453124,0.8833391,296,2,0
11402,-1.820654,-1.939148,991.908,-1,0.08300781, -0.01269531, 1.047852, -0.01859379, -0.1160936, 0.0484376,0.8833391,297,2,0
11418,-2.295794,-2.770935,991.9379,-1,0.08398438, -0.01464844, 1.045898, 0.1064062, 0.008906364, 0.0484376,0.8833391,298,2,0
11436,-0.9997344,0.2963257,991.8275,20.28599,0.08642578, -0.01953125, 1.043945, 0.01265621, -0.1942186, 0.0171876,0.8833391,299,2,0
11452,-1.74236,-2.484985,991.9276,-1,0.08642578, -0.02099609, 1.042969, 0.04390621, -0.3973436, 0.0328126,0.8833391,300,2,0
11468,-2.542567,-3.342773,991.9584,-1,0.0859375, -0.01855469, 1.04541, -0.04984379, -0.2254686, 0.0484376,0.8833391,301,2,0
11484,-2.240857,-1.939148,991.908,-1,0.08544922, -0.01416016, 1.046387, 0.01265621, 0.1807814, 0.0171876,0.8833391,302,2,0
11502,-2.362921,-2.484985,991.9276,20.27683,0.08544922, -0.01220703, 1.048828, -0.04984379, 0.05578136, -0.0140624,0.8833391,303,2,0
11519,-2.852847,-3.342773,991.9584,-1,0.08251953, -0.01660156, 1.04834, -0.08109379, -0.08484364, 0.001562595,0.8833391,304,2,0
11535,-2.110048,-1.367249,991.8873,-1,0.08154297, -0.02197266, 1.043945, 0.05953121, -0.1160936, -0.0453124,0.8833391,305,2,0
11559,-2.583466,-3.056885,991.9482,-1,0.08496094, -0.02148438, 1.043945, 0.05953121, 0.1026564, 0.0328126,0.8833391,306,2,0
11577,-2.261307,-1.939148,991.908,20.27683,0.08496094, -0.01611328, 1.047363, 0.01265621, 0.1182814, 0.0640626,0.8833391,307,2,0
11594,-1.541359,-0.8214111,991.8677,-1,0.08544922, -0.01074219, 1.043457, 0.05953121, -0.1942186, 0.0171876,0.8833391,308,2,0
11610,-1.454304,-1.367249,991.8873,-1,0.08642578, -0.015625, 1.052246, -0.1279688, -0.3504686, 0.0484376,0.8833391,309,2,0
11626,-1.553751,-1.653198,991.8976,-1,0.08740234, -0.01806641, 1.041504, 0.04390621, -0.4754686, -0.0453124,0.8833391,310,2,0
11643,-2.864156,-4.174561,991.9885,20.27683,0.08789063, -0.02050781, 1.043945, 0.01265621, -0.1004686, 0.0171876,0.8833391,311,2,0
11660,-2.401652,-1.939148,991.908,-1,0.08349609, -0.02001953, 1.049316, -0.002968788, 0.3995314, 0.0171876,0.8833391,312,2,0
11676,-3.002187,-3.602722,991.9678,-1,0.08056641, -0.01611328, 1.046387, 0.1064062, 0.5557814, 0.0328126,0.8833391,313,2,0
11694,-2.886561,-2.770935,991.9379,20.27683,0.08007813, -0.01464844, 1.041016, 0.09078121, 0.02453136, -0.0609374,0.8833391,314,2,0
11711,-1.295118,0.2963257,991.8275,-1,0.08349609, -0.01757813, 1.046387, -0.09671879, -0.6473436, -0.0453124,0.8833391,315,2,0
11727,-1.474158,-1.653198,991.8976,-1,0.08251953, -0.01855469, 1.041504, 0.05953121, -0.4129686, 0.0953126,0.8833391,316,2,0
11745,-1.979572,-2.484985,991.9276,20.27683,0.08398438, -0.01904297, 1.041992, -0.1748438, 0.2745314, 0.0484376,0.8833391,317,2,0
11762,-2.232278,-2.484985,991.9276,-1,0.08398438, -0.01611328, 1.046387, -0.1435938, -0.2254686, -0.0140624,0.8833391,318,2,0
11781,-2.358632,-2.484985,991.9276,20.27683,0.08740234, -0.015625, 1.054199, 0.02828121, -0.2723436, 0.0171876,0.8833391,319,2,0
11796,-2.980677,-3.602722,991.9678,-1,0.08691406, -0.01806641, 1.041504, 0.3251562, -0.2098436, -0.0453124,0.8833391,320,2,0
11813,-1.901044,-0.8214111,991.8677,-1,0.08496094, -0.01806641, 1.050293, -0.08109379, 0.02453136, -0.0453124,0.8833391,321,2,0
11829,-3.037802,-4.174561,991.9885,-1,0.08300781, -0.01611328, 1.039063, 0.1689062, 0.1339064, 0.0328126,0.8833391,322,2,0
11846,-2.761394,-2.484985,991.9276,20.27683,0.08007813, -0.01660156, 1.046875, -0.01859379, 0.5870314, 0.0640626,0.8833391,323,2,0
11863,-2.350271,-1.939148,991.908,-1,0.08447266, -0.01318359, 1.04541, 0.05953121, -0.3348436, -0.0140624,0.8833391,324,2,0
11879,-2.001734,-1.653198,991.8976,-1,0.08691406, -0.01464844, 1.04248, 0.09078121, -0.7879686, 0.001562595,0.8833391,325,2,0
11897,-1.970441,-1.939148,991.908,20.26767,0.08935547, -0.02001953, 1.047852, -0.1279688, -0.4910936, -0.0140624,0.8833391,326,2,0
11914,-1.668845,-1.367249,991.8873,-1,0.08642578, -0.01904297, 1.044922, 0.1376562, 0.3214064, 0.0640626,0.8833391,327,2,0
11930,-2.076915,-2.484985,991.9276,-1,0.08496094, -0.01953125, 1.048828, -0.01859379, 0.4620314, 0.0640626,0.8833391,328,2,0
11948,-1.583471,-1.090027,991.8773,20.26767,0.08349609, -0.01708984, 1.046387, 0.1064062, -0.02234364, 0.001562595,0.8833391,329,2,0
11965,-2.463122,-3.342773,991.9584,-1,0.08300781, -0.015625, 1.043945, 0.01265621, -0.1317186, 0.0484376,0.8833391,330,2,0
11983,-0.940454,0.5822144,991.8172,20.26767,0.08203125, -0.01464844, 1.041016, 0.05953121, -0.1317186, 0.001562595,0.8833391,331,2,0
11998,-1.153851,-1.367249,991.8873,-1,0.08203125, -0.01513672, 1.047363, -0.08109379, -0.1317186, 0.0484376,0.8833391,332,2,0
12014,-1.26055,-1.367249,991.8873,-1,0.08642578, -0.015625, 1.046387, -0.09671879, -0.2254686, 0.0640626,0.8833391,333,2,0
12033,-1.456874,-1.653198,991.8976,20.27683,0.08837891, -0.006835938, 1.050781, -0.1279688, -0.1317186, 0.0484376,0.8833391,334,2,0
12050,-1.412061,-1.367249,991.8873,-1,0.08789063, -0.01904297, 1.044434, 0.05953121, -0.1160936, 0.0171876,0.8833391,335,2,0
12069,-1.389655,-1.367249,991.8873,20.27225,0.08251953, -0.02294922, 1.044434, 0.05953121, 0.1651564, -0.0453124,0.8833391,336,2,0
12086,-2.639163,-3.888672,991.9781,-1,0.08007813, -0.01611328, 1.04248, 0.09078121, 0.1807814, -0.0140624,0.8833391,337,2,0
12104,-2.289156,-1.939148,991.908,20.27225,0.08300781, -0.01269531, 1.04541, 0.04390621, -0.1785936, 0.0640626,0.8833391,338,2,0
12121,-2.387071,-2.484985,991.9276,20.27683,0.08496094, -0.01318359, 1.04541, 0.04390621, -0.1629686, 0.0796876,0.8833391,339,2,0
12138,-0.7594533,0.8681641,991.8068,-1,0.08496094, -0.01708984, 1.044434, -0.1123438, -0.08484364, 0.0328126,0.8833391,340,2,0
12155,-2.467007,-4.174561,991.9885,20.2585,0.08496094, -0.02050781, 1.04834, -0.06546879, -0.2723436, -0.0453124,0.8833391,341,2,0
12171,-2.203077,-1.939148,991.908,-1,0.08642578, -0.02099609, 1.044434, 0.05953121, -0.2410936, -0.0296874,0.8833391,342,2,0
12187,-1.785163,-1.367249,991.8873,-1,0.08642578, -0.01660156, 1.046875, -0.01859379, -0.1785936, 0.0328126,0.8833391,343,2,0
12203,-1.996463,-2.207764,991.9175,-1,0.08544922, -0.015625, 1.044922, 0.1220312, 0.2120314, 0.0171876,0.8833391,344,2,0
12222,-1.967806,-1.939148,991.908,20.26767,0.08203125, -0.01171875, 1.04248, 0.1220312, 0.3057814, 0.0484376,0.8833391,345,2,0
12238,-1.953477,-1.939148,991.908,-1,0.08251953, -0.01464844, 1.047363, -0.03421879, 0.02453136, 0.0484376,0.8833391,346,2,0
12256,-2.921074,-3.888672,991.9781,20.27683,0.08496094, -0.01708984, 1.04541, -0.01859379, -0.3973436, -0.0140624,0.8833391,347,2,0
12274,-2.287136,-1.653198,991.8976,-1,0.08691406, -0.02197266, 1.047363, -0.09671879, -0.3973436, 0.0328126,0.8833391,348,2,0
12291,-1.827192,-1.367249,991.8873,20.26767,0.08642578, -0.01904297, 1.045898, 0.09078121, -0.1942186, 0.0171876,0.8833391,349,2,0
12308,-2.714957,-3.602722,991.9678,-1,0.08300781, -0.01757813, 1.044922, 0.1064062, 0.4151564, 0.0796876,0.8833391,350,2,0
12324,-2.041103,-1.367249,991.8873,-1,0.08203125, -0.01416016, 1.044922, 0.09078121, 0.1651564, 0.0171876,0.8833391,351,2,0
12343,-2.548994,-3.056885,991.9482,20.27683,0.08203125, -0.01416016, 1.04541, -0.09671879, -0.2723436, 0.001562595,0.8833391,352,2,0
12360,-1.958121,-1.367249,991.8873,-1,0.08789063, -0.01611328, 1.047363, -0.04984379, -0.4598436, 0.0328126,0.8833391,353,2,0
12378,-1.524074,-1.090027,991.8773,20.26767,0.08691406, -0.01953125, 1.046387, -0.01859379, -0.1942186, 0.0484376,0.8833391,354,2,0
12394,-2.00453,-2.484985,991.9276,-1,0.0859375, -0.02294922, 1.049316, 0.02828121, 0.02453136, 0.0328126,0.8833391,355,2,0
12418,-0.5681828,0.8681641,991.8068,-1,0.08349609, -0.01855469, 1.042969, 0.2157812, 0.1964064, 0.0328126,0.8833391,356,2,0
12434,-1.110691,-1.653198,991.8976,-1,0.08056641, -0.01416016, 1.047852, 0.01265621, -0.08484364, 0.0484376,0.8833391,357,2,0
12449,-1.810839,-2.510986,991.9285,-1,0.08496094, -0.01464844, 1.04248, 0.05953121, -0.2410936, 0.0171876,0.8833391,358,2,0
12465,-2.290887,-2.770935,991.9379,-1,0.08642578, -0.015625, 1.047852, -0.09671879, -0.3192186, 0.001562595,0.8833391,359,2,0
12481,-3.791592,-5.292297,992.0287,-1,0.08691406, -0.01953125, 1.043457, 0.02828121, -0.2567186, 0.0171876,0.8833391,360,2,0
12500,-2.86537,-1.939148,991.908,20.26767,0.08740234, -0.02050781, 1.048828, -0.1123438, -0.1004686, -0.0140624,0.8833391,361,2,0
12516,-2.259284,-1.653198,991.8976,-1,0.08349609, -0.01904297, 1.044922, 0.04390621, 0.1964064, 0.0328126,0.8833391,362,2,0
12532,-2.372135,-2.484985,991.9276,-1,0.08203125, -0.01806641, 1.044434, 0.05953121, 0.3370314, 0.0484376,0.8833391,363,2,0
12550,-2.298586,-2.225037,991.9182,20.28141,0.08154297, -0.01611328, 1.04541, 0.05953121, 0.1026564, 0.0484376,0.8833391,364,2,0
12566,-1.274079,-0.2495728,991.847,-1,0.08349609, -0.01855469, 1.046387, 0.02828121, -0.3035936, 0.0796876,0.8833391,365,2,0
12583,-1.606614,-1.939148,991.908,-1,0.08789063, -0.01513672, 1.044434, 0.07515621, -0.5223436, 0.0328126,0.8833391,366,2,0
12600,-1.486931,-1.367249,991.8873,-1,0.08935547, -0.01806641, 1.044922, -0.04984379, -0.4442186, 0.0171876,0.8833391,367,2,0
12617,-1.570065,-1.653198,991.8976,-1,0.08691406, -0.01611328, 1.045898, 0.01265621, 0.04015636, -0.0296874,0.8833391,368,2,0
12633,-2.027525,-2.484985,991.9276,-1,0.08447266, -0.01611328, 1.047852, 0.1064062, 0.4307814, 0.0484376,0.8833391,369,2,0
12651,-1.281493,-0.5354614,991.8574,-1,0.08105469, -0.01660156, 1.041504, 0.09078121, 0.3839064, 0.0171876,0.8833391,370,2,0
12668,-0.4925838,0.2963257,991.8275,-1,0.08251953, -0.01904297, 1.04834, -0.1123438, -0.08484364, 0.0640626,0.8833391,371,2,0
12684,-0.5140226,-0.5354614,991.8574,-1,0.08544922, -0.01806641, 1.044922, 0.1376562, -0.2254686, -0.0609374,0.8833391,372,2,0
12702,-2.058372,-3.602722,991.9678,20.27225,0.0859375, -0.01953125, 1.04541, 0.07515621, -0.2723436, 0.0640626,0.8833391,373,2,0
12719,-1.99876,-1.939148,991.908,-1,0.08886719, -0.01708984, 1.043945, 0.07515621, -0.4129686, -0.0453124,0.8833391,374,2,0
12737,-1.968954,-1.939148,991.908,20.27225,0.0859375, -0.015625, 1.047363, 0.05953121, 0.2745314, 0.0484376,0.8833391,375,2,0
12754,-1.668101,-1.367249,991.8873,-1,0.08300781, -0.01464844, 1.040039, 0.2001562, 0.3526564, 0.0171876,0.8833391,376,2,0
12772,-2.076543,-2.484985,991.9276,20.26767,0.08300781, -0.01513672, 1.045898, 0.04390621, 0.05578136, 0.0328126,0.8833391,377,2,0
12789,-1.721896,-1.367249,991.8873,-1,0.08544922, -0.01757813, 1.045898, 0.01265621, -0.5067186, -0.0296874,0.8833391,378,2,0
12808,-2.103441,-2.484985,991.9276,20.27683,0.08740234, -0.02050781, 1.04541, -0.06546879, -0.1473436, 0.0328126,0.8833391,379,2,0
12824,-3.970818,-5.838196,992.0483,-1,0.0859375, -0.02050781, 1.044922, 0.02828121, 0.04015636, 0.0953126,0.8833391,380,2,0
12840,-3.929745,-3.888672,991.9781,-1,0.08349609, -0.02197266, 1.047852, 0.04390621, 0.1651564, 0.0171876,0.8833391,381,2,0
12859,-2.648497,-1.367249,991.8873,20.27683,0.08251953, -0.01660156, 1.04248, 0.2001562, 0.1026564, -0.0453124,0.8833391,382,2,0
12874,-2.42813,-2.207764,991.9175,-1,0.08251953, -0.01464844, 1.045898, 0.01265621, -0.2098436, -0.0296874,0.8833391,383,2,0
12890,-1.897689,-1.367249,991.8873,-1,0.08300781, -0.01318359, 1.039551, 0.02828121, -0.2879686, -0.0609374,0.8833391,384,2,0
12907,-2.46862,-3.039551,991.9474,-1,0.0859375, -0.01855469, 1.046875, -0.1123438, -0.1317186, 0.0484376,0.8833391,385,2,0
12924,-2.203884,-1.939148,991.908,20.27225,0.08837891, -0.02050781, 1.044922, 0.05953121, -0.1785936, 0.0171876,0.8833391,386,2,0
12942,-2.344435,-2.484985,991.9276,-1,0.08935547, -0.01806641, 1.044434, -0.06546879, -0.1004686, 0.0484376,0.8833391,387,2,0
12960,-1.998816,-1.653198,991.8976,20.26309,0.08349609, -0.01660156, 1.047363, -0.01859379, 0.1182814, -0.0140624,0.8833391,388,2,0
12976,-1.683033,-1.367249,991.8873,-1,0.08154297, -0.01757813, 1.043457, 0.1376562, 0.2589064, 0.0171876,0.8833391,389,2,0
12992,-1.668115,-1.653198,991.8976,-1,0.08251953, -0.01757813, 1.044922, 0.07515621, 0.04015636, 0.0796876,0.8833391,390,2,0
13011,-2.635419,-3.602722,991.9678,20.27225,0.08496094, -0.01513672, 1.046387, 0.05953121, -0.3348436, 0.0171876,0.8833391,391,2,0
13027,-2.421591,-2.207764,991.9175,-1,0.08691406, -0.01611328, 1.04541, 0.07515621, -0.3035936, 0.001562595,0.8833391,392,2,0
13043,-2.18037,-1.939148,991.908,-1,0.08447266, -0.01806641, 1.045898, 0.04390621, -0.02234364, 0.0484376,0.8833391,393,2,0
13061,-2.332677,-2.484985,991.9276,20.27683,0.08496094, -0.01660156, 1.040527, 0.1376562, 0.07140636, -0.0296874,0.8833391,394,2,0
13077,-1.711352,-1.090027,991.8773,-1,0.08105469, -0.01513672, 1.040527, -0.09671879, 0.1026564, -0.0296874,0.8833391,395,2,0
13093,-2.800012,-3.888672,991.9781,-1,0.08154297, -0.015625, 1.051758, -0.3310938, 0.1964064, 0.0484376,0.8833391,396,2,0
13112,-2.08363,-1.367249,991.8873,20.26767,0.08349609, -0.01708984, 1.043457, 0.1376562, -0.08484364, 0.0640626,0.8833391,397,2,0
13128,-1.586829,-1.090027,991.8773,-1,0.08837891, -0.0234375, 1.04834, -0.1123438, -0.6473436, 0.0171876,0.8833391,398,2,0
13145,-2.035907,-2.484985,991.9276,-1,0.08935547, -0.02441406, 1.044922, 0.1064062, -0.6004686, 0.001562595,0.8833391,399,2,0
13162,-1.701578,-1.367249,991.8873,20.26767,0.08496094, -0.01757813, 1.044434, 0.09078121, 0.3682814, 0.0484376,0.8833391,400,2,0
13178,-1.395802,-1.090027,991.8773,-1,0.08447266, -0.01123047, 1.043457, 0.2001562, 0.2589064, 0.0171876,0.8833391,401,2,0
13195,-1.242915,-1.090027,991.8773,-1,0.08447266, -0.01074219, 1.04541, -0.09671879, -0.1004686, 0.0171876,0.8833391,402,2,0
13213,-1.725339,-2.207764,991.9175,20.27225,0.08740234, -0.01757813, 1.043945, 0.01265621, -0.3348436, -0.0140624,0.8833391,403,2,0
13228,-2.105162,-2.484985,991.9276,-1,0.08691406, -0.02246094, 1.043945, 0.04390621, -0.1004686, 0.001562595,0.8833391,404,2,0
13244,-1.177367,-0.2495728,991.847,-1,0.08251953, -0.02636719, 1.043945, 0.01265621, -0.08484364, 0.0171876,0.8833391,405,2,0
13261,-0.9907223,-0.8040771,991.8669,-1,0.08203125, -0.01904297, 1.047852, -0.06546879, 0.08703136, 0.0171876,0.8833391,406,2,0
13279,-2.296722,-3.602722,991.9678,20.26309,0.08544922, -0.01318359, 1.04541, 0.1376562, 0.08703136, 0.0328126,0.8833391,407,2,0
13304,-2.949722,-3.602722,991.9678,20.26767,0.08447266, -0.01660156, 1.043457, 0.1220312, -0.3973436, -0.0140624,0.8833391,408,2,0
13320,-3.276222,-3.602722,991.9678,-1,0.08447266, -0.01953125, 1.043457, -0.01859379, -0.2723436, -0.0140624,0.8833391,409,2,0
13336,-2.321735,-1.367249,991.8873,-1,0.08251953, -0.01953125, 1.042969, 0.01265621, 0.1339064, 0.0484376,0.8833391,410,2,0
13352,-0.5881443,1.145447,991.7969,-1,0.08642578, -0.01757813, 1.045898, -0.2060938, 0.04015636, 0.1109376,0.8833391,411,2,0
13370,0.1400099,0.8681641,991.8068,20.26767,0.08544922, -0.01464844, 1.043457, 0.02828121, -0.2098436, 0.001562595,0.8833391,412,2,0
13386,-0.6136193,-1.367249,991.8873,-1,0.08496094, -0.01904297, 1.04834, 0.02828121, 0.1964064, 0.001562595,0.8833391,413,2,0
13402,-2.108171,-3.602722,991.9678,-1,0.08251953, -0.01660156, 1.040527, 0.2470312, 0.1339064, -0.0296874,0.8833391,414,2,0
13420,-1.599099,-1.090027,991.8773,20.2585,0.08447266, -0.02099609, 1.047363, -0.2685938, -0.3817186, 0.0484376,0.8833391,415,2,0
13436,-0.6427196,0.3136597,991.8267,-1,0.08740234, -0.01660156, 1.043457, -0.002968788, -0.3660936, -0.0453124,0.8833391,416,2,0
13452,-1.004984,-1.367249,991.8873,-1,0.08789063, -0.01904297, 1.048828, -0.08109379, 0.04015636, 0.0953126,0.8833391,417,2,0
13468,-2.303853,-3.602722,991.9678,-1,0.08447266, -0.01611328, 1.044922, 0.2470312, 0.1964064, 0.0484376,0.8833391,418,2,0
13487,-2.814646,-3.325439,991.9578,20.25392,0.08105469, -0.01806641, 1.04248, 0.02828121, -0.1160936, -0.0140624,0.8833391,419,2,0
13503,-2.511205,-2.207764,991.9175,-1,0.08398438, -0.01464844, 1.041992, 0.01265621, -0.2254686, 0.001562595,0.8833391,420,2,0
13519,-2.498095,-2.484985,991.9276,-1,0.08398438, -0.01660156, 1.04834, -0.08109379, -0.02234364, 0.0484376,0.8833391,421,2,0
13537,-1.651086,-0.8040771,991.8669,20.26309,0.08642578, -0.015625, 1.043945, 0.02828121, -0.06921864, 0.0796876,0.8833391,422,2,0
13557,-2.068036,-2.484985,991.9276,20.26309,0.08740234, -0.01953125, 1.044922, -0.04984379, -0.1785936, 0.001562595,0.8833391,423,2,0
13574,-2.553793,-3.039551,991.9474,-1,0.08691406, -0.02001953, 1.04834, -0.06546879, -0.1942186, -0.0453124,0.8833391,424,2,0
13590,-1.82191,-1.090027,991.8773,-1,0.08642578, -0.01806641, 1.043945, 0.07515621, -0.1317186, -0.0453124,0.8833391,425,2,0
13608,-2.43073,-3.039551,991.9474,20.25392,0.08496094, -0.01708984, 1.045898, -0.002968788, 0.1651564, -0.0453124,0.8833391,426,2,0
13624,-1.760379,-1.090027,991.8773,-1,0.08251953, -0.01513672, 1.042969, 0.1689062, 0.3214064, 0.0328126,0.8833391,427,2,0
13641,-1.425203,-1.090027,991.8773,-1,0.08007813, -0.01074219, 1.040039, 0.05953121, 0.3370314, 0.001562595,0.8833391,428,2,0
13656,-2.513963,-3.602722,991.9678,-1,0.08203125, -0.01513672, 1.044922, -0.002968788, -0.05359364, 0.0796876,0.8833391,429,2,0
13674,-2.776757,-3.039551,991.9474,20.25392,0.08544922, -0.01708984, 1.04248, -0.08109379, -0.5692186, -0.0140624,0.8833391,430,2,0
13690,-1.231549,0.3136597,991.8267,-1,0.08886719, -0.02294922, 1.039551, -0.09671879, -0.2879686, 0.0796876,0.8833391,431,2,0
13706,-2.976004,-4.720459,992.0081,-1,0.09326172, -0.01074219, 1.049316, -0.3779688, -0.1942186, -0.0453124,0.8833391,432,2,0
13724,-4.268458,-5.560913,992.0383,20.26309,0.08789063, -0.01757813, 1.046875, -0.2217188, 0.07140636, 0.0328126,0.8833391,433,2,0
13742,-2.393293,-0.5181274,991.8568,-1,0.08300781, -0.02441406, 1.043457, 0.09078121, 0.6807814, 0.001562595,0.8833391,434,2,0
13758,-2.430472,-2.467651,991.9269,-1,0.07470703, -0.02734375, 1.049805, 0.1845312, 0.6026564, 0.0640626,0.8833391,435,2,0
13775,-2.735012,-3.039551,991.9474,-1,0.07421875, -0.02441406, 1.046875, 0.3720312, 0.1651564, 0.0796876,0.8833391,436,2,0
13792,-2.887281,-3.039551,991.9474,-1,0.08154297, -0.02392578, 1.05127, 0.2782812, -0.8192186, -0.0921874,0.8833391,437,2,0
13811,-2.677466,-2.467651,991.9269,20.2585,0.08398438, -0.01464844, 1.034668, 0.8251562, -1.131719, 0.001562595,0.8833391,438,2,0
13826,-1.883747,-1.090027,991.8773,-1,0.08935547, -0.01123047, 1.046387, 0.6220312, -0.8348436, 0.0171876,0.8833391,439,2,0
13841,-2.743234,-3.602722,991.9678,-1,0.08642578, -0.0078125, 1.045898, 0.5907812, 0.1182814, 0.1265626,0.8833391,440,2,0
13857,-3.172978,-3.602722,991.9678,-1,0.08154297, -0.01220703, 1.041016, 0.4501562, 0.2276564, 0.0796876,0.8833391,441,2,0
13874,-3.249209,-3.325439,991.9578,-1,0.08154297, -0.01708984, 1.038574, 0.4032812, 0.1651564, 0.1578126,0.8833391,442,2,0
13891,-3.846193,-4.443176,991.998,20.26767,0.08789063, -0.01904297, 1.044434, 0.02828121, -0.9598436, 0.1265626,0.8833391,443,2,0
13907,-2.325135,-0.8040771,991.8669,-1,0.09619141, -0.01806641, 1.047852, 0.2470312, -1.397344, 0.001562595,0.8833391,444,2,0
13923,-2.40506,-2.484985,991.9276,-1,0.1000977, -0.01171875, 1.050293, 0.07515621, -0.8035936, -0.0921874,0.8833391,445,2,0
13940,-1.461594,-0.5181274,991.8568,-1,0.09619141, -0.01660156, 1.048828, 0.2001562, 0.4776564, 0.0171876,0.8833391,446,2,0
13958,-2.393517,-3.325439,991.9578,20.24934,0.08105469, -0.02099609, 1.038574, 0.4501562, 0.9464064, -0.0609374,0.8833391,447,2,0
13975,-2.30064,-2.207764,991.9175,-1,0.07128906, -0.02539063, 1.051758, -0.06546879, 1.055781, -0.0609374,0.8833391,448,2,0
13992,-1.968252,-1.635864,991.897,20.26309,0.06884766, -0.01708984, 1.025391, 0.5907812, 0.1182814, -0.0609374,0.8833391,449,2,0
14009,-1.386165,-0.8040771,991.8669,-1,0.08251953, -0.01269531, 1.049805, -0.2685938, -1.116094, -0.0296874,0.8833391,450,2,0
14025,-2.628751,-3.871338,991.9775,-1,0.09326172, -0.01123047, 1.046875, 0.05953121, -1.381719, 0.0328126,0.8833391,451,2,0
14043,-2.834151,-3.039551,991.9474,20.26767,0.09765625, -0.01757813, 1.044922, 0.07515621, -0.5848436, 0.0171876,0.8833391,452,2,0
14059,-2.659568,-2.484985,991.9276,-1,0.09423828, -0.02392578, 1.047363, -0.08109379, 0.3057814, 0.0484376,0.8833391,453,2,0
14076,-2.84956,-3.039551,991.9474,-1,0.09179688, -0.01757813, 1.038086, -0.03421879, 0.2745314, -0.0765624,0.8833391,454,2,0
14091,-1.540899,-0.2322388,991.8464,-1,0.08544922, -0.01220703, 1.04834, -0.5185938, 0.3057814, -0.0921874,0.8833391,455,2,0
14109,-0.8865689,-0.2322388,991.8464,20.26309,0.08789063, -0.009277344, 1.052734, -0.3467188, 0.8057814, 0.1578126,0.8833391,456,2,0
14126,1.247145,3.380859,991.7163,-1,0.07421875, -0.02001953, 1.039063, 0.2939062, 0.8526564, -0.1078124,0.8833391,457,2,0
14141,0.3645089,-0.5181274,991.8568,-1,0.08300781, -0.02880859, 1.04834, -0.04984379, 0.02453136, 0.0640626,1.247145,0,2,0
14167,-0.07680929,-0.5181274,991.8568,-1,0.07421875, -0.03222656, 1.038574, 0.7470312, -0.1785936, 0.0484376,1.247145,1,2,0
14182,-0.7220289,-1.367249,991.8873,-1,0.08398438, -0.01757813, 1.043945, -0.04984379, -0.6473436, 0.0796876,1.247145,2,2,0
14200,-0.4771338,-0.2322388,991.8464,20.26309,0.09521484, -0.005859375, 1.053223, -0.4404688, -1.428594, 0.0953126,1.247145,3,2,0
14217,-0.9135548,-1.349976,991.8867,-1,0.09765625, -0.002441406, 1.040527, 0.09078121, -1.069219, 0.0328126,1.247145,4,2,0
14236,-0.2999475,0.3136597,991.8267,20.24934,0.08837891, -0.01708984, 1.048828, -0.1592188, 1.133906, 0.0796876,1.247145,5,2,0
14253,-1.526774,-2.753601,991.9373,-1,0.07861328, -0.02978516, 1.041504, 0.1220312, 0.5401564, -0.0609374,1.247145,6,2,0
14269,-2.283163,-3.039551,991.9474,-1,0.08251953, -0.02539063, 1.052734, -0.3779688, -0.2567186, 0.0328126,1.247145,7,2,0
14287,-1.54362,-0.8040771,991.8669,20.25392,0.09375, -0.01416016, 1.049805, 0.05953121, -0.8348436, -0.0296874,1.247145,8,2,0
14304,-0.8879293,-0.2322388,991.8464,-1,0.08251953, -0.01025391, 1.038574, 0.2626562, 0.6339064, -0.0609374,1.247145,9,2,0
14323,-0.8460032,-0.8040771,991.8669,20.2585,0.07714844, -0.0078125, 1.041016, -0.06546879, 0.7589064, 0.0171876,1.247145,10,2,0
14340,-0.9680151,-1.090027,991.8773,-1,0.07958984, -0.01220703, 1.040039, 0.01265621, -0.6317186, 0.0484376,1.247145,11,2,0
14358,-1.860808,-2.753601,991.9373,20.2585,0.09228516, -0.015625, 1.045898, -0.2529688, -1.053594, 0.0640626,1.247145,12,2,0
14375,-1.332443,-0.8040771,991.8669,-1,0.09082031, -0.02246094, 1.04834, -0.06546879, -0.1004686, 0.0171876,1.247145,13,2,0
14393,-2.043022,-2.753601,991.9373,20.24934,0.08691406, -0.02539063, 1.05127, -0.03421879, 0.3839064, -0.0609374,1.247145,14,2,0
14410,-1.978084,-1.913147,991.9071,-1,0.08105469, -0.02294922, 1.050781, 0.05953121, 0.3526564, -0.0140624,1.247145,15,2,0
14428,-2.092924,-2.207764,991.9175,20.2585,0.08203125, -0.01611328, 1.041504, 0.4345312, 0.1339064, 0.0484376,1.247145,16,2,0
14443,-1.591475,-1.090027,991.8773,-1,0.08251953, -0.01318359, 1.039551, 0.1845312, 0.2901564, 0.0484376,1.247145,17,2,0
14459,-0.9118571,-0.2322388,991.8464,-1,0.07861328, -0.01025391, 1.038574, 0.3251562, 0.2745314, -0.0140624,1.247145,18,2,0
14476,-1.689754,-2.467651,991.9269,-1,0.07910156, -0.01171875, 1.041992, -0.01859379, -0.08484364, -0.0453124,1.247145,19,2,0
14495,-2.221678,-2.753601,991.9373,20.2585,0.08349609, -0.01123047, 1.037109, -0.1904688, -0.6629686, -0.0921874,1.247145,20,2,0
14511,-2.344665,-2.467651,991.9269,-1,0.09082031, -0.015625, 1.045898, -0.6435938, -0.3348436, 0.0484376,1.247145,21,2,0
14529,-2.406158,-2.467651,991.9269,20.26309,0.09277344, -0.01757813, 1.052246, -0.5185938, 0.1182814, 0.0484376,1.247145,22,2,0
14546,-0.6303556,1.145447,991.7969,-1,0.0859375, -0.02246094, 1.050293, -0.3310938, 0.6026564, -0.0140624,1.247145,23,2,0
14565,-0.9901656,-1.349976,991.8867,20.26309,0.0859375, -0.02734375, 1.047852, -0.03421879, -0.06921864, -0.0609374,1.247145,24,2,0
14581,-0.8971213,-0.8040771,991.8669,-1,0.08154297, -0.02441406, 1.044922, 0.1220312, -0.2567186, -0.0609374,1.247145,25,2,0
14597,-0.005811662,0.885498,991.8062,-1,0.07910156, -0.01757813, 1.041992, 0.1376562, 0.1964064, -0.0765624,1.247145,26,2,0
14615,-1.522681,-3.039551,991.9474,20.24934,0.078125, -0.01220703, 1.037598, 0.2939062, 0.5557814, 0.0796876,1.247145,27,2,0
14632,-1.163379,-0.8040771,991.8669,-1,0.08251953, -0.005371094, 1.039551, 0.04390621, -0.2723436, 0.0484376,1.247145,28,2,0
14651,-2.101465,-3.039551,991.9474,20.2585,0.08789063, -0.0078125, 1.038086, -0.1748438, -0.6785936, 0.0171876,1.247145,29,2,0
14668,-1.452771,-0.8040771,991.8669,-1,0.08935547, -0.01855469, 1.04834, -0.5967188, -0.5223436, -0.0453124,1.247145,30,2,0
14686,-2.103186,-2.753601,991.9373,20.2585,0.09179688, -0.02685547, 1.04834, -0.2685938, 0.05578136, -0.0296874,1.247145,31,2,0
14702,-2.294086,-2.484985,991.9276,-1,0.08447266, -0.03027344, 1.054199, -0.2685938, 0.7901564, 0.0328126,1.247145,32,2,0
14717,-2.380868,-2.467651,991.9269,-1,0.08105469, -0.02685547, 1.044434, 0.1689062, 0.7432814, 0.0171876,1.247145,33,2,0
14733,-2.567235,-2.753601,991.9373,-1,0.07861328, -0.01953125, 1.044434, 0.1845312, 0.08703136, -0.0140624,1.247145,34,2,0
14749,-1.967242,-1.367249,991.8873,-1,0.08007813, -0.01220703, 1.041504, 0.09078121, -0.1629686, -0.0140624,1.247145,35,2,0
14765,-3.062234,-4.157227,991.9877,-1,0.08349609, -0.006835938, 1.039063, 0.2626562, -0.4754686, -0.0609374,1.247145,36,2,0
14783,-4.311574,-5.560913,992.0383,20.2585,0.0859375, -0.004882813, 1.041992, -0.04984379, -0.4285936, 0.0640626,1.247145,37,2,0
14800,-2.41485,-0.5181274,991.8568,-1,0.08740234, -0.008300781, 1.025391, -0.03421879, -0.2254686, 0.0640626,1.247145,38,2,0
14819,-2.441251,-2.467651,991.9269,20.2585,0.09179688, -0.01806641, 1.049805, -1.002969, 0.2589064, 0.1265626,1.247145,39,2,0
14835,-0.3619828,1.717285,991.7762,-1,0.08544922, -0.02783203, 1.032715, 0.1376562, 0.3057814, 0.0171876,1.247145,40,2,0
14851,-1.137565,-1.913147,991.9071,-1,0.08056641, -0.02246094, 1.050781, -0.3623438, -0.1004686, -0.0140624,1.247145,41,2,0
14866,-1.802608,-2.467651,991.9269,-1,0.08886719, -0.02197266, 1.044922, 0.2939062, -0.3035936, 0.0484376,1.247145,42,2,0
14881,-1.992185,-2.181763,991.9166,-1,0.0859375, -0.01904297, 1.053223, -0.3154688, -0.1160936, -0.0609374,1.247145,43,2,0
14899,-1.814025,-1.635864,991.897,20.2585,0.08251953, -0.01757813, 1.04541, 0.3720312, 0.4932814, -0.0296874,1.247145,44,2,0
14916,-0.7501826,0.3136597,991.8267,-1,0.08154297, -0.01660156, 1.041504, 0.1220312, 0.2276564, 0.0640626,1.247145,45,2,0
14932,-2.453705,-4.157227,991.9877,-1,0.08056641, -0.01611328, 1.04248, 0.09078121, 0.1339064, -0.0453124,1.247145,46,2,0
14947,-2.460678,-2.467651,991.9269,-1,0.07958984, -0.01904297, 1.042969, 0.01265621, 0.1495314, -0.0140624,1.247145,47,2,0
14962,-2.60714,-2.753601,991.9373,-1,0.07910156, -0.02050781, 1.043945, -0.1592188, -0.1629686, 0.001562595,1.247145,48,2,0
14978,-1.14674,0.3136597,991.8267,-1,0.08154297, -0.02001953, 1.047363, -0.2373438, -0.6004686, 0.001562595,1.247145,49,2,0
14993,-1.807196,-2.467651,991.9269,-1,0.08642578, -0.01806641, 1.044434, -0.1279688, -0.9129686, 0.0484376,1.247145,50,2,0
15008,-0.1879301,1.431335,991.7865,-1,0.08935547, -0.01904297, 1.042969, 0.05953121, -0.5223436, 0.0953126,1.247145,51,2,0
15032,-0.2100844,-0.2322388,991.8464,20.24934,0.08740234, -0.01953125, 1.05127, -0.01859379, 0.6339064, 0.1265626,1.247145,52,2,0
15047,0.3290398,0.8681641,991.8068,-1,0.08496094, -0.01806641, 1.044922, 0.1220312, 0.3057814, 0.0484376,1.247145,53,2,0
15062,-1.4982,-3.325439,991.9578,-1,0.08251953, -0.01513672, 1.044922, 0.1220312, -0.06921864, 0.0171876,1.247145,54,2,0
15076,-1.705673,-1.913147,991.9071,-1,0.08203125, -0.01904297, 1.042969, 0.02828121, -0.5535936, -0.1078124,1.247145,55,2,0
15091,-2.788506,-3.871338,991.9775,-1,0.08300781, -0.02001953, 1.043945, 0.01265621, -0.4129686, -0.0296874,1.247145,56,2,0
15108,-1.094479,0.5995483,991.8165,20.2585,0.08447266, -0.01464844, 1.04541, 0.04390621, 0.1964064, 0.0484376,1.247145,57,2,0
15123,-1.222227,-1.349976,991.8867,-1,0.08544922, -0.015625, 1.051758, -0.2060938, 0.1964064, 0.1578126,1.247145,58,2,0
15137,-3.244262,-5.266296,992.0279,-1,0.08642578, -0.01757813, 1.039551, 0.1532812, -0.3192186, 0.0171876,1.247145,59,2,0
15153,-2.713012,-2.181763,991.9166,-1,0.0859375, -0.02050781, 1.050293, -0.04984379, -0.4129686, -0.0140624,1.247145,60,2,0
15168,-1.342651,0.02770996,991.837,-1,0.08496094, -0.02148438, 1.044922, 0.1532812, -0.2723436, 0.001562595,1.247145,61,2,0
15183,-2.191101,-3.039551,991.9474,-1,0.08349609, -0.02001953, 1.04541, 0.2314062, 0.008906364, 0.0171876,1.247145,62,2,0
15198,-3.174164,-4.157227,991.9877,-1,0.08349609, -0.015625, 1.044434, 0.1845312, 0.08703136, 0.1265626,1.247145,63,2,0
15213,-2.820908,-2.467651,991.9269,-1,0.08886719, -0.01123047, 1.039063, 0.07515621, -0.1629686, 0.0953126,1.247145,64,2,0
15229,-2.367027,-1.913147,991.9071,-1,0.09033203, -0.01464844, 1.040527, 0.04390621, -0.1317186, 0.001562595,1.247145,65,2,0
15243,-2.001446,-1.635864,991.897,-1,0.08691406, -0.01660156, 1.049316, -0.4717188, 0.02453136, -0.0140624,1.247145,66,2,0
15258,-2.802084,-3.602722,991.9678,-1,0.0859375, -0.01806641, 1.043457, 0.3095312, -0.02234364, -0.0765624,1.247145,67,2,0
15273,-2.07603,-1.349976,991.8867,-1,0.08154297, -0.0234375, 1.044922, 0.05953121, -0.2567186, -0.0296874,1.247145,68,2,0
15289,-1.154134,-0.2322388,991.8464,-1,0.0859375, -0.02441406, 1.04834, -0.09671879, -0.3973436, 0.0640626,1.247145,69,2,0
15305,-0.6931865,-0.2322388,991.8464,20.24934,0.08203125, -0.02099609, 1.046875, 0.2314062, 0.2745314, 0.0640626,1.247145,70,2,0
15320,-1.723394,-2.753601,991.9373,-1,0.08105469, -0.01660156, 1.044922, 0.3720312, 0.7589064, 0.0640626,1.247145,71,2,0
15335,-0.8348414,0.05371094,991.8361,-1,0.08007813, -0.009765625, 1.039551, 0.2626562, -0.2254686, 0.0484376,1.247145,72,2,0
15351,-1.651246,-2.467651,991.9269,-1,0.08544922, -0.01123047, 1.041992, 0.04390621, -0.8660936, -0.0453124,1.247145,73,2,0
15366,-2.618317,-3.585388,991.9672,-1,0.09179688, -0.01708984, 1.044922, -0.03421879, -0.6160936, -0.0140624,1.247145,74,2,0
15381,-1.711197,-0.8040771,991.8669,-1,0.08984375, -0.02001953, 1.048828, 0.1220312, -0.06921864, -0.0453124,1.247145,75,2,0
15396,-1.114662,-0.5181274,991.8568,-1,0.08496094, -0.02050781, 1.04541, 0.01265621, 0.5245314, 0.001562595,1.247145,76,2,0
15412,0.1583365,1.431335,991.7865,-1,0.08154297, -0.02099609, 1.04834, -0.04984379, 0.2745314, 0.0953126,1.247145,77,2,0
15427,-0.03695112,-0.2322388,991.8464,-1,0.08496094, -0.02050781, 1.045898, 0.01265621, -0.1473436, 0.0484376,1.247145,78,2,0
15442,-0.2775393,-0.5181274,991.8568,-1,0.0859375, -0.01757813, 1.044922, 0.2157812, -0.1942186, -0.0140624,1.247145,79,2,0
15458,-0.254889,-0.2322388,991.8464,-1,0.08642578, -0.01513672, 1.04541, 0.1064062, -0.1160936, -0.0140624,1.247145,80,2,0
15473,-0.9453766,-1.635864,991.897,-1,0.08300781, -0.01367188, 1.041992, 0.1376562, -0.1473436, -0.0453124,1.247145,81,2,0
15488,-0.8747269,-0.8040771,991.8669,-1,0.08398438, -0.01611328, 1.044434, 0.05953121, -0.02234364, 0.0171876,1.247145,82,2,0
15504,-1.112351,-1.349976,991.8867,-1,0.08447266, -0.01708984, 1.041016, 0.1220312, -0.006718636, 0.001562595,1.247145,83,2,0
15519,-1.790001,-2.467651,991.9269,-1,0.08544922, -0.01660156, 1.04541, -0.03421879, 0.1339064, 0.0171876,1.247145,84,2,0
15534,-2.271801,-2.753601,991.9373,-1,0.08447266, -0.01806641, 1.046387, -0.08109379, 0.08703136, -0.0140624,1.247145,85,2,0
15550,-1.953833,-1.635864,991.897,-1,0.08544922, -0.01806641, 1.047363, -0.09671879, -0.02234364, 0.0171876,1.247145,86,2,0
15567,-1.794848,-1.635864,991.897,20.26309,0.08544922, -0.02148438, 1.045898, -0.1279688, -0.3035936, -0.0453124,1.247145,87,2,0
15583,-2.13125,-2.467651,991.9269,20.25392,0.08691406, -0.01953125, 1.046875, 0.02828121, -0.3035936, 0.0171876,1.247145,88,2,0
15598,-1.749249,-1.367249,991.8873,-1,0.08740234, -0.01806641, 1.044922, 0.1220312, 0.1339064, 0.0171876,1.247145,89,2,0
15613,-0.990744,-0.2322388,991.8464,-1,0.08105469, -0.01708984, 1.042969, 0.1689062, 0.3057814, 0.0171876,1.247145,90,2,0
15629,-1.451946,-1.913147,991.9071,-1,0.08300781, -0.01367188, 1.041504, 0.01265621, 0.04015636, -0.0453124,1.247145,91,2,0
15645,-2.102773,-2.753601,991.9373,-1,0.08398438, -0.01220703, 1.043457, 0.01265621, -0.3192186, -0.0140624,1.247145,92,2,0
15660,-1.167506,-0.2322388,991.8464,-1,0.08544922, -0.01464844, 1.046875, -0.1435938, -0.3348436, 0.001562595,1.247145,93,2,0
15675,-0.5568975,0.05371094,991.8361,-1,0.0859375, -0.02001953, 1.045898, -0.03421879, 0.1182814, 0.0640626,1.247145,94,2,0
15691,-1.655249,-2.753601,991.9373,-1,0.08300781, -0.02197266, 1.044434, -0.002968788, 0.1964064, 0.0171876,1.247145,95,2,0
15706,-0.9437441,-0.2322388,991.8464,-1,0.08203125, -0.02246094, 1.045898, -0.06546879, -0.1160936, 0.0640626,1.247145,96,2,0
15722,-1.991648,-3.039551,991.9474,-1,0.08496094, -0.01855469, 1.047852, -0.002968788, -0.2567186, -0.0296874,1.247145,97,2,0
15737,-1.670812,-1.349976,991.8867,-1,0.08544922, -0.015625, 1.044434, 0.07515621, -0.1785936, 0.0484376,1.247145,98,2,0
15755,-0.5356316,0.5995483,991.8165,20.24476,0.08447266, -0.01464844, 1.044434, 0.1689062, -0.02234364, -0.0140624,1.247145,99,2,0
15771,-1.644616,-2.753601,991.9373,-1,0.08398438, -0.01708984, 1.043457, 0.05953121, 0.04015636, -0.0296874,1.247145,100,2,0
15787,-2.199109,-2.753601,991.9373,-1,0.08300781, -0.01708984, 1.04248, 0.02828121, -0.03796864, 0.0328126,1.247145,101,2,0
15802,-2.33338,-2.467651,991.9269,-1,0.08398438, -0.01708984, 1.042969, -0.03421879, -0.1160936, 0.0484376,1.247145,102,2,0
15818,-1.711703,-1.090027,991.8773,-1,0.08447266, -0.01708984, 1.04541, -0.09671879, -0.1160936, -0.0140624,1.247145,103,2,0
15835,-0.9719711,-0.2322388,991.8464,20.2585,0.08398438, -0.01953125, 1.04541, -0.1123438, -0.05359364, 0.0484376,1.247145,104,2,0
15862,-1.719811,-2.467651,991.9269,20.24934,0.08203125, -0.01855469, 1.043457, -0.01859379, -0.1004686, -0.0140624,1.247145,105,2,0
15878,-1.534893,-1.349976,991.8867,-1,0.08349609, -0.01806641, 1.04541, 0.04390621, -0.1942186, -0.0453124,1.247145,106,2,0
15896,-1.442435,-1.349976,991.8867,20.26767,0.0859375, -0.01708984, 1.047363, 0.1376562, -0.1004686, 0.001562595,1.247145,107,2,0
15912,-0.8373366,-0.2322388,991.8464,-1,0.08300781, -0.01806641, 1.045898, 0.2001562, 0.02453136, 0.0328126,1.247145,108,2,0
15929,-1.938444,-3.039551,991.9474,-1,0.08056641, -0.01757813, 1.039063, 0.2314062, 0.02453136, 0.0171876,1.247145,109,2,0
15948,-2.203048,-2.467651,991.9269,20.24934,0.08251953, -0.01708984, 1.041992, -0.01859379, -0.2567186, 0.0328126,1.247145,110,2,0
15964,-2.894218,-3.585388,991.9672,-1,0.08642578, -0.01367188, 1.043945, 0.09078121, -0.2410936, -0.0453124,1.247145,111,2,0
15980,-2.680935,-2.467651,991.9269,-1,0.0859375, -0.01416016, 1.044922, -0.06546879, -0.1785936, 0.0484376,1.247145,112,2,0
15998,-2.58296,-2.484985,991.9276,20.24934,0.08691406, -0.01757813, 1.044922, -0.1279688, -0.05359364, 0.0640626,1.247145,113,2,0
16014,-2.668281,-2.753601,991.9373,-1,0.08691406, -0.02099609, 1.047363, -0.1748438, 0.1182814, -0.0140624,1.247145,114,2,0
16030,-1.866153,-1.064026,991.8763,-1,0.08251953, -0.02099609, 1.046387, -0.002968788, 0.1182814, -0.0296874,1.247145,115,2,0
16048,-1.049196,-0.2322388,991.8464,20.26309,0.08251953, -0.02148438, 1.044922, 0.1689062, -0.006718636, -0.0296874,1.247145,116,2,0
16064,-1.901399,-2.753601,991.9373,-1,0.08349609, -0.02001953, 1.045898, 0.1845312, -0.1942186, 0.0171876,1.247145,117,2,0
16079,-1.495713,-1.090027,991.8773,-1,0.08251953, -0.01660156, 1.043457, 0.1845312, -0.06921864, -0.0453124,1.247145,118,2,0
16095,-0.8639757,-0.2322388,991.8464,-1,0.08349609, -0.01416016, 1.044434, 0.1845312, -0.02234364, 0.0328126,1.247145,119,2,0
16110,-1.665814,-2.467651,991.9269,-1,0.08496094, -0.01269531, 1.04541, -0.04984379, -0.1785936, 0.001562595,1.247145,120,2,0
16126,-2.209707,-2.753601,991.9373,-1,0.08496094, -0.01513672, 1.04541, 0.01265621, -0.2098436, 0.0328126,1.247145,121,2,0
16141,-0.8050795,0.5995483,991.8165,-1,0.08544922, -0.01757813, 1.045898, -0.08109379, -0.2567186, -0.0453124,1.247145,122,2,0
