time_launch,filtered_altitude,unfiltered_altitude,pressure,temperature,acceleration_x,acceleration_y,acceleration_z,gyro_x_rate,gyro_y_rate,gyro_z_rate,max_altitude,apogee_counter,event#,error_flag 
10,-12.05956,-14.24789,996.2991,-1,0.6069336, 15.99951, -0.7006836, 50.02797, -68.89484, 66.20484,2.484259,1,1,30
24,-18.90697,-25.75439,996.715,-1,-2.304688, 15.99951, -0.3061523, -7.268906, -99.51984, -7.904531,2.484259,2,1,30
39,-28.0406,-37.17422,997.1281,-1,2.128418, 15.99951, 1.200195, -50.92516, -101.0042, 123.2361,2.484259,3,1,30
112,-53.48457,-78.92853,998.6386,-1,-0.3100586, 1.362793, 1.013672, -125.847, 75.93328, 39.0486,2.484259,4,1,30
176,-59.11896,-64.75336,998.1255,-1,-0.3930664, -0.2407227, -0.4291992, 2.340469, 65.71453, -16.59203,2.484259,5,1,30
345,-49.45493,-39.79089,997.2227,-1,0.296875, -0.2402344, -0.2436523, 23.41859, 33.63641, 14.89234,2.484259,6,2,30
411,-38.87401,-28.29309,996.8068,10.88437,0.1884766, -0.2426758, 0.1425781, 17.57484, 26.77703, 14.67359,2.484259,7,2,30
478,-28.67077,-18.46753,996.4517,-1,-0.06494141, -0.2207031, 0.2797852, -4.800156, 23.08953, -7.857656,2.484259,8,2,30
547,-20.80517,-12.93958,996.2519,10.87519,-0.1821289, -0.1523438, 0.265625, 0.2623438, 16.93328, -9.982656,2.484259,9,2,30
616,-12.20653,-3.60788,995.9149,-1,-0.2148438, -0.1425781, 0.1845703, 2.371719, 8.995781, -8.154531,2.484259,10,2,30
684,-3.938849,4.328827,995.6281,-1,-0.1860352, -0.09912109, 0.09521484, 3.574844, 6.167656, -6.888906,2.484259,11,2,30
753,4.457928,12.85471,995.3204,-1,-0.1098633, -0.09326172, 0.05224609, 2.590469, 3.808281, -5.310781,2.484259,12,2,30
823,10.83977,17.22162,995.1626,10.83846,-0.05371094, -0.08398438, 0.02734375, 0.1217188, 1.902031, -4.326406,4.457928,0,2,30
894,17.31021,23.78064,994.9257,10.83846,-0.01464844, -0.07275391, 0.06103516, -1.565781, 0.2926564, -0.7326562,10.83977,0,2,30
965,24.66542,32.02063,994.6284,-1,-0.0078125, -0.07275391, 0.06347656, -2.909531, -0.5354686, 0.7048438,17.31021,0,2,30
1143,34.10059,43.53577,994.2129,-1,0.01416016, -0.0546875, 0.05810547, -5.237656, -2.847969, 0.5954688,24.66542,0,2,30
1214,40.46009,46.81958,994.0945,-1,0.02539063, -0.0390625, 0.06835938, -5.534531, -3.285469, 1.548594,34.10059,0,2,30
1285,46.92371,53.38733,993.8577,-1,0.03417969, -0.04492188, 0.0546875, -5.050156, -4.972969, 1.798594,40.46009,0,2,30
1356,52.63788,58.35205,993.6788,-1,0.04003906, -0.03662109, 0.05371094, -4.972031, -5.691719, 2.142344,46.92371,0,2,30
1433,56.88129,61.12469,993.5789,10.81092,0.01074219, -0.02441406, 0.07226563, -4.706406, -6.519844, 1.876719,52.63788,0,2,30
1509,61.04349,65.20569,993.4316,-1,-0.005859375, -0.01416016, 0.07421875, -5.550156, -7.832344, 0.1892188,56.88129,0,2,30
1586,64.9138,68.78412,993.3027,-1,-0.006347656, -0.008789063, 0.05859375, -4.206406, -8.379219, 0.3923438,61.04349,0,2,30
1661,66.84896,68.78412,993.3027,-1,-0.007324219, -0.00390625, 0.05126953, -4.690781, -8.816719, 0.6267188,64.9138,0,2,30
1738,69.31117,71.77338,993.1948,-1,0.0009765625, 0.0004882813, 0.03613281, -4.018906, -9.410469, 1.470469,66.84896,0,2,30
1815,71.78132,74.25146,993.1054,-1,0.004882813, 0.00390625, 0.04052734, -4.503281, -9.957344, 1.704844,69.31117,0,2,30
1998,75.71973,79.65814,992.9107,-1,0.002441406, 0.009277344, 0.04980469, -5.690781, -9.926094, 2.532969,71.78132,0,2,30
2077,77.68893,79.65814,992.9107,-1,0.003417969, 0.008789063, 0.05810547, -6.378281, -10.20734, 2.892344,75.71973,0,2,30
2155,79.33202,80.9751,992.8633,-1,0.004394531, 0.01123047, 0.05957031, -6.393906, -10.26984, 3.220469,77.68893,0,2,30
2236,79.3131,79.29419,992.9236,-1,0.005859375, 0.01123047, 0.05078125, -6.331406, -10.67609, 3.642344,79.33202,0,2,30
2317,80.25241,81.19171,992.8555,-1,0.0, 0.01318359, 0.05029297, -6.550156, -11.56672, 3.970469,79.33202,1,2,30
2401,80.43181,80.61121,992.8762,10.85683,0.00390625, 0.01708984, 0.05566406, -7.487656, -12.53547, 5.126719,80.25241,0,2,30
2484,80.81176,81.19171,992.8555,10.85683,0.0078125, 0.02050781, 0.05029297, -8.503282, -13.25422, 6.751719,80.43181,0,2,30
2566,80.30859,79.80542,992.9052,-1,0.005371094, 0.02392578, 0.05273438, -9.800157, -13.55109, 8.642344,80.81176,0,2,30
2698,79.22089,78.13318,992.9657,-1,0.004882813, 0.03027344, 0.05664063, -13.67516, -13.61359, 13.64234,80.81176,1,2,30
2761,77.72827,76.23566,993.0341,-1,0.002441406, 0.03369141, 0.05859375, -16.65953, -13.76984, 17.34547,80.81176,2,2,30
2931,73.94937,70.17047,993.2526,-1,0.02001953, 0.0390625, 0.05712891, -27.17516, -14.53547, 32.4861,80.81176,3,2,30
2995,71.66136,69.37335,993.2814,10.8706,0.01660156, 0.03955078, 0.07177734, -32.95641, -17.06672, 39.89235,80.81176,4,2,30
3061,71.17587,70.69037,993.2339,10.8706,0.04931641, 0.02978516, 0.07568359, -40.98766, -22.75422, 52.26735,80.81176,5,3,30
3125,69.83705,68.49823,993.3129,-1,0.08935547, 0.01123047, 0.06591797, -48.08141, -30.81672, 66.81422,80.81176,5,3,30
3191,67.5257,65.21436,993.4313,-1,0.105957, -0.03125, 0.07177734, -60.05016, -47.59797, 88.14234,80.81176,5,3,30
3256,67.60907,67.69244,993.3419,-1,0.1757813, -0.1230469, 0.2426758, -72.84703, -59.51984, 111.5642,80.81176,5,3,30
3331,67.7634,67.91772,993.3338,-1,0.296875, -0.2504883, 0.08740234, -85.59703, -56.05109, 153.5798,80.81176,5,3,30
3398,70.57854,73.39368,993.1365,-1,0.6694336, -0.4682617, -0.05078125, -98.92516, -18.78547, 186.1267,80.81176,5,3,30
3468,69.79397,69.0094,993.2944,10.88437,0.6655273, -0.6923828, 0.2641602, -145.6439, 72.57391, 210.1111,80.81176,5,3,30
3536,67.75978,65.72559,993.4127,-1,0.3662109, -0.887207, 0.6000977, -211.9877, 182.2302, 192.6111,80.81176,5,3,30
3712,50.87794,33.99609,994.5573,-1,-0.2314453, -1.181641, 0.3066406, -315.3783, 351.0583, -48.21703,80.81176,5,3,30
3779,34.78193,18.68591,995.1097,-1,-0.1601563, -1.123047, 0.1005859, -265.5814, 345.152, -161.5139,80.81176,5,3,30
3847,25.81981,16.8577,995.1757,-1,0.009765625, -0.9560547, 0.07666016, -183.7533, 329.8552, -214.8108,80.81176,5,3,30
3918,21.48606,17.15231,995.1652,-1,0.2626953, -0.6445313, 0.1591797, -98.81578, 304.3552, -203.3108,80.81176,5,3,30
3990,22.3431,23.20013,994.947,-1,0.4394531, -0.3457031, 0.2285156, -55.94078, 243.6208, -149.7795,80.81176,5,3,30
4061,22.51602,22.68893,994.9652,-1,0.4150391, -0.1831055, 0.3959961, -49.47203, 228.3864, -91.52953,80.81176,5,3,30
4135,21.6537,20.79138,995.0337,10.83846,0.4736328, -0.230957, 0.3271484, -59.48766, 354.6052, -48.2639,80.81176,5,3,30
4211,18.34592,15.03815,995.2414,-1,0.08837891, -0.3310547, 0.5205078, -93.48766, 494.8708, -71.04516,80.81176,5,3,30
4285,13.45151,8.557098,995.4756,-1,-0.03662109, -0.3994141, 0.4375, -83.14391, 495.7927, -94.24828,80.81176,5,3,30
4357,4.592561,-4.266388,995.9386,-1,-0.1972656, -0.3779297, 0.262207, -45.00328, 440.6677, -129.8108,80.81176,5,3,30
4538,-9.627807,-23.84818,996.6462,-1,-0.2680664, -0.3764648, 0.1254883, 80.91859, 412.7927, -115.9827,80.81176,5,4,30
4614,-18.52289,-27.41797,996.7751,10.79715,-0.2255859, -0.3212891, 0.2353516, 98.37172, 373.1208, -74.98266,80.81176,5,4,30
4690,-26.34959,-34.1763,997.0196,10.78337,-0.2021484, -0.2871094, 0.2856445, 79.93422, 328.7458, -45.27953,80.81176,5,4,30
4767,-32.30344,-38.25729,997.1672,10.79255,-0.4575195, -0.2133789, 0.02636719, 64.55922, 305.0427, -38.60765,80.81176,5,4,30
4847,-14.82344,2.656555,995.6886,10.79255,-3.844727, -5.931641, 0.3164063, 510.403, -495.2855, 509.4392,80.81176,5,4,30
4925,-8.487848,-2.152252,995.8622,-1,-0.8188477, 3.879395, 1.864258, 25.69984, -295.9261, -83.82641,80.81176,5,4,30
5005,-2.699033,3.089783,995.6729,10.75124,0.5297852, -3.221191, -1.591797, -191.9408, -444.1605, -52.8264,80.81176,5,4,30
5086,-1.55052,-0.4020081,995.7991,10.74664,0.03613281, -0.07763672, 0.006347656, -122.3783, -505.1761, 54.6111,80.81176,5,4,30
5169,-1.266532,-0.9825439,995.8201,10.74664,0.4379883, 0.53125, -0.8920898, -10.23766, -91.58234, 44.72047,80.81176,5,4,30
5250,-1.670391,-2.074249,995.8596,10.74664,0.8461914, 1.129883, -1.080078, 13.87172, 134.3239, 48.9236,80.81176,5,4,30
5437,-1.075186,-0.4799805,995.8017,-1,0.2587891, -0.07519531, 0.2197266, 106.2623, 96.90203, -1.326406,80.81176,5,4,30
5520,-1.470744,-1.866302,995.8519,10.76501,0.1103516, 0.07421875, 0.3476563, -10.87828, -35.09797, 26.64234,80.81176,5,4,30
5602,-1.811498,-2.152252,995.8622,-1,0.8881836, -0.05859375, 1.009277, 9.934218, -196.1292, -0.2326562,80.81176,5,4,30
5733,-2.129168,-2.446838,995.8728,-1,0.7470703, -0.1171875, 0.5209961, 19.77797, 60.21453, -15.24828,80.81176,5,4,30
5797,-1.633829,-1.138489,995.8256,10.78337,0.652832, -0.09082031, 0.7797852, 5.652969, 25.63641, -3.638906,80.81176,5,4,30
5860,-0.9485976,-0.2633667,995.7939,-1,0.7827148, -0.1435547, 0.5795898, -2.815781, -12.62922, 2.126719,80.81176,5,4,30
5926,-1.186503,-1.424408,995.8359,-1,0.762207, -0.128418, 0.6982422, 0.6217188, 2.167656, -0.1389062,80.81176,5,4,30
5992,-1.305455,-1.424408,995.8359,10.79255,0.769043, -0.1289063, 0.6850586, 0.3248438, 0.3395314, 0.04859376,80.81176,5,4,30
6058,-2.201067,-3.09668,995.8964,10.80174,0.7719727, -0.1289063, 0.675293, 0.2154688, -0.2698436, 0.03296876,80.81176,5,4,30
6124,-0.8639767,0.473114,995.7675,-1,0.7749023, -0.1298828, 0.6743164, 0.2310938, -0.4417186, 0.06421876,80.81176,5,4,30
6297,-0.3427397,0.1784973,995.7781,10.80174,0.7739258, -0.1308594, 0.675293, 0.2623438, -0.2542186, 0.04859376,80.81176,5,4,30
6362,-1.030882,-1.719025,995.8464,10.80174,0.7734375, -0.128418, 0.6743164, 0.2467188, -0.3010936, 0.06421876,80.81176,5,4,30
6429,-2.904235,-4.777588,995.957,-1,0.7734375, -0.1313477, 0.6733398, 0.2310938, -0.2698436, 0.04859376,80.81176,5,4,30
6497,-2.346282,-1.78833,995.8491,-1,0.7734375, -0.1313477, 0.6748047, 0.2154688, -0.2698436, 0.06421876,80.81176,5,4,30
6567,-1.77272,-1.199158,995.8279,10.80174,0.7739258, -0.1298828, 0.6748047, 0.1685938, -0.2229686, 0.03296876,80.81176,5,4,30
6634,-2.036125,-2.29953,995.8675,-1,0.7729492, -0.1308594, 0.6762695, 0.1685938, -0.2698436, 0.04859376,80.81176,5,4,30
6704,-2.310802,-2.58548,995.8781,-1,0.7724609, -0.1293945, 0.6777344, 0.1998438, -0.2698436, 0.07984376,80.81176,5,4,30
6776,-2.305166,-2.29953,995.8675,10.80174,0.7729492, -0.1318359, 0.675293, 0.1529688, -0.2385936, 0.09546876,80.81176,5,4,30
6856,-1.353587,-0.4020081,995.7991,-1,0.7724609, -0.128418, 0.6757813, 0.1842188, -0.2385936, 0.04859376,80.81176,5,4,30
6929,-0.8777976,-0.4020081,995.7991,-1,0.7729492, -0.1303711, 0.6733398, 0.1842188, -0.2854686, 0.04859376,80.81176,5,4,30
7111,-1.333064,-1.78833,995.8491,10.81092,0.7729492, -0.1293945, 0.6757813, 0.2623438, -0.3167186, 0.06421876,80.81176,5,4,30
7184,-1.816297,-2.29953,995.8675,-1,0.7734375, -0.1289063, 0.6743164, 0.1842188, -0.2698436, 0.04859376,80.81176,5,4,30
7258,-2.495475,-3.174652,995.8992,-1,0.7734375, -0.1293945, 0.6762695, 0.2154688, -0.2542186, 0.04859376,80.81176,5,4,30
7335,-1.448741,-0.4020081,995.7991,10.81092,0.7724609, -0.1293945, 0.6757813, 0.1685938, -0.3010936, 0.07984376,80.81176,5,4,30
7415,-2.311697,-3.174652,995.8992,10.82469,0.7729492, -0.1289063, 0.675293, 0.2154688, -0.2385936, 0.06421876,80.81176,5,4,30
7491,-2.448588,-2.58548,995.8781,10.81092,0.7744141, -0.1298828, 0.6743164, 0.2154688, -0.2229686, 0.04859376,80.81176,5,4,30
7569,-1.7199,-0.9912109,995.8203,-1,0.7734375, -0.1303711, 0.6777344, 0.2623438, -0.2542186, 0.01734376,80.81176,5,4,30
7644,-1.208247,-0.6965942,995.8096,-1,0.7724609, -0.1303711, 0.6733398, 0.2623438, -0.2385936, 0.07984376,80.81176,5,4,30
7726,-1.099729,-0.9912109,995.8203,10.81551,0.7739258, -0.1298828, 0.6748047, 0.1685938, -0.2229686, 0.00171876,80.81176,5,4,30
7804,-0.4952685,0.1091919,995.7807,-1,0.7734375, -0.1298828, 0.6748047, 0.2310938, -0.2854686, 0.04859376,80.81176,5,4,30
7991,-0.8905329,-1.285797,995.8308,-1,0.7744141, -0.1303711, 0.6767578, 0.1998438, -0.3010936, 0.06421876,80.81176,5,4,30
8072,-2.179886,-3.469238,995.9097,-1,0.7729492, -0.1289063, 0.6757813, 0.2310938, -0.3167186, 0.01734376,80.81176,5,4,30
8149,-1.732841,-1.285797,995.8308,-1,0.7734375, -0.1298828, 0.6757813, 0.2467188, -0.2698436, 0.04859376,80.81176,5,4,30
8234,-2.055187,-2.377533,995.8702,10.8201,0.7729492, -0.1289063, 0.6762695, 0.1685938, -0.2385936, 0.07984376,80.81176,5,4,30
8314,-2.069052,-2.082916,995.8596,10.8201,0.7739258, -0.1313477, 0.6743164, 0.1998438, -0.2385936, 0.09546876,80.81176,5,4,30
8398,-1.820384,-1.571716,995.8413,-1,0.7739258, -0.1313477, 0.6733398, 0.1529688, -0.3010936, 0.04859376,80.81176,5,4,30
8531,-2.79212,-3.763855,995.9203,-1,0.7724609, -0.1303711, 0.6748047, 0.2310938, -0.2385936, 0.06421876,80.81176,5,4,30
8594,-1.233157,0.3258057,995.7727,10.82928,0.7744141, -0.1303711, 0.6767578, 0.1842188, -0.2698436, 0.06421876,80.81176,5,4,30
8655,-2.351198,-3.469238,995.9097,-1,0.7734375, -0.1298828, 0.675293, 0.1998438, -0.2385936, 0.04859376,80.81176,5,4,30
8718,-1.268296,-0.1853943,995.7913,-1,0.7739258, -0.1308594, 0.6743164, 0.2310938, -0.2385936, 0.07984376,80.81176,5,4,30
8889,-0.7268452,-0.1853943,995.7913,-1,0.7724609, -0.1293945, 0.675293, 0.2623438, -0.2385936, 0.09546876,80.81176,5,4,30
8952,-1.985401,-3.243958,995.9019,-1,0.7744141, -0.1298828, 0.6743164, 0.1842188, -0.2542186, 0.01734376,80.81176,5,4,30
9016,-0.8297978,0.3258057,995.7727,-1,0.7734375, -0.1298828, 0.675293, 0.2467188, -0.2385936, 0.06421876,80.81176,5,4,30
9080,-1.495358,-2.160919,995.8624,-1,0.7724609, -0.1289063, 0.6757813, 0.1998438, -0.2698436, 0.04859376,80.81176,5,4,30
9143,-2.079405,-2.663452,995.8808,-1,0.7739258, -0.1308594, 0.6767578, 0.1998438, -0.2385936, 0.01734376,80.81176,5,4,30
9211,-1.96852,-1.857635,995.8517,-1,0.7744141, -0.1303711, 0.6748047, 0.2310938, -0.3167186, 0.09546876,80.81176,5,4,30
9281,-0.2754894,1.417542,995.7333,10.82928,0.7729492, -0.1308594, 0.6757813, 0.2310938, -0.2698436, 0.1267188,80.81176,5,4,30
9352,-1.61243,-2.949371,995.8912,10.83387,0.7724609, -0.1293945, 0.6762695, 0.1842188, -0.2698436, 0.06421876,80.81176,5,4,30
9425,-1.449114,-1.285797,995.8308,-1,0.7734375, -0.1293945, 0.675293, 0.1685938, -0.2542186, 0.09546876,80.81176,5,4,30
9495,-1.367455,-1.285797,995.8308,-1,0.7724609, -0.128418, 0.6748047, 0.1685938, -0.2542186, 0.06421876,80.81176,5,4,30
9673,-1.105679,-0.8439026,995.8151,10.84765,0.7729492, -0.1308594, 0.6733398, 0.2154688, -0.2542186, 0.1267188,80.81176,5,4,30
9743,-1.230391,-1.355103,995.8334,10.84765,0.7739258, -0.1289063, 0.6757813, 0.1998438, -0.2542186, 0.04859376,80.81176,5,4,30
9815,-1.838615,-2.446838,995.8729,10.83846,0.7744141, -0.1303711, 0.675293, 0.2310938, -0.2698436, 0.07984376,80.81176,5,4,30
9890,-2.688594,-3.538574,995.9123,10.84765,0.7724609, -0.1298828, 0.6757813, 0.1685938, -0.3010936, 0.1110938,80.81176,5,4,30
9962,-2.862303,-3.036011,995.894,10.84306,0.7734375, -0.1303711, 0.6767578, 0.1998438, -0.2385936, 0.04859376,80.81176,5,4,30
10033,-1.562835,-0.2633667,995.7939,-1,0.7724609, -0.1289063, 0.6743164, 0.2310938, -0.2542186, 0.04859376,80.81176,5,4,30
10108,-2.840957,-4.11908,995.9334,10.84765,0.7739258, -0.1303711, 0.6762695, 0.1998438, -0.2542186, 0.07984376,80.81176,5,4,30
10181,-2.500938,-2.160919,995.8624,-1,0.7753906, -0.1293945, 0.675293, 0.1842188, -0.2698436, 0.06421876,80.81176,5,4,30
10258,-1.382152,-0.2633667,995.7939,-1,0.7749023, -0.1298828, 0.6748047, 0.2310938, -0.2854686, 0.07984376,80.81176,5,4,30
10335,-1.914495,-2.446838,995.8729,-1,0.7714844, -0.1313477, 0.6748047, 0.1998438, -0.2542186, 0.09546876,80.81176,5,4,30
10528,-2.323627,-2.732758,995.8833,-1,0.7729492, -0.1303711, 0.6762695, 0.1685938, -0.2698436, 0.06421876,80.81176,5,4,30
10607,-1.696405,-1.069183,995.823,10.84765,0.7744141, -0.1298828, 0.6757813, 0.1842188, -0.2698436, 0.04859376,80.81176,5,4,30
10686,-1.77702,-1.857635,995.8517,-1,0.7739258, -0.128418, 0.6762695, 0.1685938, -0.2385936, 0.07984376,80.81176,5,4,30
10766,-3.20365,-4.63028,995.9518,-1,0.7734375, -0.1293945, 0.6748047, 0.1685938, -0.2854686, 0.09546876,80.81176,5,4,30
10844,-2.530643,-1.857635,995.8517,-1,0.7729492, -0.1318359, 0.6757813, 0.1842188, -0.1917186, 0.09546876,80.81176,5,4,30
10923,-2.345781,-2.160919,995.8624,-1,0.7739258, -0.1274414, 0.6738281, 0.1685938, -0.2073436, 0.06421876,80.81176,5,4,30
11005,-3.345071,-4.34436,995.9413,10.83846,0.7739258, -0.1313477, 0.6743164, 0.1842188, -0.2385936, 0.09546876,80.81176,5,4,30
11086,-3.844716,-4.34436,995.9413,-1,0.7744141, -0.128418, 0.675293, 0.2310938, -0.2698436, 0.09546876,80.81176,5,4,30
11168,-2.742869,-1.641022,995.8438,-1,0.7739258, -0.1318359, 0.6748047, 0.2310938, -0.2698436, 0.04859376,80.81176,5,4,30
11299,-2.594853,-2.446838,995.8729,10.83387,0.7744141, -0.1293945, 0.6762695, 0.1998438, -0.2854686, 0.04859376,80.81176,5,4,30
11467,-3.469607,-4.34436,995.9413,-1,0.7739258, -0.1293945, 0.6748047, 0.1373438, -0.2385936, 0.1267188,80.81176,5,4,30
11528,-2.412355,-1.355103,995.8334,-1,0.7724609, -0.1308594, 0.6743164, 0.2310938, -0.2698436, 0.09546876,80.81176,5,4,30
11593,-3.521317,-4.63028,995.9518,10.83846,0.7729492, -0.1289063, 0.6733398, 0.2310938, -0.2698436, 0.06421876,80.81176,5,4,30
11655,-2.984078,-2.446838,995.8729,-1,0.7724609, -0.1303711, 0.675293, 0.2310938, -0.2542186, 0.00171876,80.81176,5,4,30
11720,-2.02663,-1.069183,995.823,10.82928,0.7744141, -0.1293945, 0.6748047, 0.2310938, -0.2073436, 0.06421876,80.81176,5,4,30
11785,-2.093775,-2.160919,995.8624,10.82928,0.7729492, -0.1298828, 0.6748047, 0.1373438, -0.2229686, 0.09546876,80.81176,5,4,30
11852,-2.668866,-3.243958,995.9019,10.83846,0.7749023, -0.1289063, 0.6762695, 0.2467188, -0.2854686, 0.09546876,80.81176,5,4,30
11919,-2.557852,-2.446838,995.8729,10.82928,0.7753906, -0.1293945, 0.6767578, 0.1685938, -0.3323436, 0.03296876,80.81176,5,4,30
11986,-3.160854,-3.763855,995.9203,-1,0.7739258, -0.1298828, 0.6757813, 0.2935938, -0.3167186, 0.09546876,80.81176,5,4,30
12056,-2.223325,-1.285797,995.8308,-1,0.7734375, -0.1313477, 0.6748047, 0.1529688, -0.1760936, 0.06421876,80.81176,5,4,30
12234,-2.586348,-2.949371,995.8912,10.82928,0.7724609, -0.1308594, 0.6743164, 0.1842188, -0.2698436, 0.04859376,80.81176,5,4,30
12305,-3.313728,-4.041107,995.9305,10.82928,0.7739258, -0.1308594, 0.6762695, 0.2310938, -0.3010936, 0.06421876,80.81176,5,4,30
12375,-3.677418,-4.041107,995.9305,10.82928,0.7729492, -0.1298828, 0.6762695, 0.2467188, -0.3010936, 0.07984376,80.81176,5,4,30
12447,-2.767527,-1.857635,995.8517,10.82469,0.7734375, -0.1289063, 0.6757813, 0.1998438, -0.2698436, 0.07984376,80.81176,5,4,30
12517,-2.169621,-1.571716,995.8413,-1,0.7749023, -0.1303711, 0.6743164, 0.2310938, -0.2698436, 0.06421876,80.81176,5,4,30
12589,-2.559496,-2.949371,995.8912,-1,0.7744141, -0.1298828, 0.6743164, 0.1685938, -0.2385936, 0.07984376,80.81176,5,4,30
12660,-1.116845,0.3258057,995.7727,-1,0.7749023, -0.1303711, 0.6738281, 0.1998438, -0.2073436, 0.04859376,80.81176,5,4,30
12734,-2.578976,-4.041107,995.9305,-1,0.7739258, -0.1308594, 0.6743164, 0.2310938, -0.2698436, 0.09546876,80.81176,5,4,30
12807,-2.478255,-2.377533,995.8702,10.83387,0.7734375, -0.1333008, 0.675293, 0.2154688, -0.2385936, 0.07984376,80.81176,5,4,30
12880,-3.666907,-4.85556,995.9598,-1,0.7744141, -0.1298828, 0.6757813, 0.1998438, -0.2698436, -0.02953124,80.81176,5,4,30
13063,-3.42078,-3.174652,995.8992,-1,0.7729492, -0.1293945, 0.6767578, 0.2310938, -0.2542186, 0.09546876,80.81176,5,4,30
13139,-5.082613,-6.744446,996.0281,-1,0.7734375, -0.1303711, 0.6733398, 0.2154688, -0.2385936, 0.1110938,80.81176,5,4,30
13214,-4.275926,-3.469238,995.9097,-1,0.7744141, -0.1308594, 0.6757813, 0.1685938, -0.2854686, 0.01734376,80.81176,5,4,30
13291,-3.872582,-3.469238,995.9097,-1,0.7739258, -0.1298828, 0.6757813, 0.1529688, -0.2542186, 0.04859376,80.81176,5,4,30
13369,-2.431896,-0.9912109,995.8203,-1,0.7719727, -0.1318359, 0.6743164, 0.1842188, -0.2698436, 0.1110938,80.81176,5,4,30
13445,-3.349142,-4.266388,995.9386,-1,0.7724609, -0.1298828, 0.6748047, 0.1998438, -0.3010936, 0.04859376,80.81176,5,4,30
13525,-2.716029,-2.082916,995.8596,-1,0.7744141, -0.1303711, 0.6748047, 0.1998438, -0.2073436, 0.01734376,80.81176,5,4,30
13606,-2.945341,-3.174652,995.8992,-1,0.7724609, -0.1298828, 0.6738281, 0.1998438, -0.2385936, 0.09546876,80.81176,5,4,30
13688,-1.820967,-0.6965942,995.8096,10.81092,0.7749023, -0.1298828, 0.6762695, 0.2310938, -0.2385936, 0.07984376,80.81176,5,4,30
13770,-1.510063,-1.199158,995.8279,-1,0.7719727, -0.1298828, 0.6738281, 0.1998438, -0.2542186, 0.06421876,80.81176,5,4,30
13959,-0.8130757,-0.1160889,995.7886,-1,0.7734375, -0.1308594, 0.6767578, 0.1998438, -0.3010936, 0.07984376,80.81176,5,4,30
14041,-1.846571,-2.880066,995.8885,-1,0.7734375, -0.1313477, 0.6757813, 0.2310938, -0.3167186, 0.06421876,80.81176,5,4,30
14181,-2.363318,-2.880066,995.8885,10.80174,0.7724609, -0.1298828, 0.6757813, 0.1685938, -0.2854686, 0.06421876,80.81176,5,4,30
14242,-2.331424,-2.29953,995.8675,-1,0.7734375, -0.1289063, 0.6772461, 0.2154688, -0.2073436, 0.04859376,80.81176,5,4,30
14305,-3.151613,-3.971802,995.928,-1,0.7734375, -0.1308594, 0.6748047, 0.2467188, -0.3010936, 0.1423438,80.81176,5,4,30
14370,-3.414399,-3.677185,995.9175,10.80174,0.7734375, -0.1293945, 0.6748047, 0.1998438, -0.2385936, 0.04859376,80.81176,5,4,30
14436,-2.454072,-1.493744,995.8386,-1,0.7739258, -0.1298828, 0.6738281, 0.1685938, -0.2698436, 0.09546876,80.81176,5,4,30
14502,-3.212937,-3.971802,995.928,10.80174,0.7729492, -0.1303711, 0.675293, 0.1685938, -0.2698436, 0.04859376,80.81176,5,4,30
14567,-1.114311,0.984314,995.7491,10.80633,0.7729492, -0.1293945, 0.6757813, 0.2310938, -0.3010936, 0.06421876,80.81176,5,4,30
14629,-1.706921,-2.29953,995.8675,-1,0.7758789, -0.1313477, 0.6757813, 0.1998438, -0.2385936, 0.01734376,80.81176,5,4,30
14803,-2.003225,-2.29953,995.8675,-1,0.7714844, -0.1293945, 0.675293, 0.2467188, -0.1604686, 0.06421876,80.81176,5,4,30
14869,-2.549953,-3.09668,995.8964,10.79715,0.7749023, -0.1298828, 0.6757813, 0.1842188, -0.2698436, 0.04859376,80.81176,5,4,30
14937,-2.277448,-2.004944,995.8571,-1,0.7739258, -0.1303711, 0.6762695, 0.1685938, -0.2542186, 0.09546876,80.81176,5,4,30
15005,-1.595328,-0.913208,995.8176,10.79255,0.7714844, -0.1289063, 0.6733398, 0.1685938, -0.2698436, 0.07984376,80.81176,5,4,30
15072,-1.800136,-2.004944,995.8571,-1,0.7739258, -0.1289063, 0.6757813, 0.1685938, -0.2854686, 0.04859376,80.81176,5,4,30
15140,-1.612272,-1.424408,995.8359,-1,0.7734375, -0.1308594, 0.6757813, 0.1685938, -0.2385936, 0.06421876,80.81176,5,4,30
15209,-2.064208,-2.516144,995.8753,10.79715,0.7749023, -0.1303711, 0.6743164, 0.2310938, -0.2385936, 0.1110938,80.81176,5,4,30
15281,-1.194122,-0.3240356,995.7963,-1,0.7744141, -0.1293945, 0.6757813, 0.1998438, -0.2385936, 0.03296876,80.81176,5,4,30
15352,-2.401001,-3.60788,995.9148,-1,0.7734375, -0.1323242, 0.6748047, 0.1998438, -0.1292186, 0.04859376,80.81176,5,4,30
15428,-3.294708,-4.188416,995.9359,10.79715,0.7744141, -0.1298828, 0.6748047, 0.1842188, -0.2385936, 0.09546876,80.81176,5,4,30
15608,-3.308334,-3.32196,995.9046,-1,0.7744141, -0.1298828, 0.6767578, 0.1842188, -0.2229686, 0.06421876,80.81176,5,4,30
15679,-3.167839,-3.027344,995.8938,-1,0.7744141, -0.1303711, 0.6733398, 0.1998438, -0.2385936, 0.06421876,80.81176,5,4,30
15754,-2.153164,-1.138489,995.8256,10.78337,0.7749023, -0.121582, 0.6777344, 0.1685938, 0.05828142, 0.06421876,80.81176,5,4,30
15827,-3.42639,-4.699615,995.9542,-1,0.7866211, -0.1333008, 0.659668, 0.2935938, -0.7542186, 0.03296876,80.81176,5,4,30
15903,-2.390746,-1.355103,995.8334,-1,0.7670898, -0.128418, 0.6845703, 0.1998438, 0.08953142, 0.01734376,80.81176,5,4,30
15982,-2.566085,-2.741425,995.8834,10.77419,0.7729492, -0.1298828, 0.6713867, 0.1998438, -0.2542186, 0.09546876,80.81176,5,4,30
16061,-2.653755,-2.741425,995.8834,-1,0.7763672, -0.1264648, 0.6748047, 0.1685938, -0.4417186, 0.06421876,80.81176,5,4,30
16141,-3.789326,-4.924896,995.9623,10.77419,0.7714844, -0.1279297, 0.6757813, 0.1998438, -0.1135936, 0.04859376,80.81176,5,4,30
16219,-3.811243,-3.83316,995.9229,-1,0.7724609, -0.1308594, 0.675293, 0.2623438, -0.2385936, 0.06421876,80.81176,5,4,30
16297,-3.129041,-2.446838,995.8728,-1,0.7744141, -0.1303711, 0.6748047, 0.1998438, -0.1448436, 0.09546876,80.81176,5,4,30
16491,-1.696204,-0.2633667,995.7939,-1,0.7739258, -0.1313477, 0.6757813, 0.1998438, -0.2698436, 0.04859376,80.81176,5,4,30
16572,-2.764682,-3.83316,995.9229,-1,0.7709961, -0.1264648, 0.6733398, 0.2467188, -0.03546858, 0.00171876,80.81176,5,4,30
16654,-2.86136,-2.958038,995.8914,-1,0.7749023, -0.1313477, 0.6787109, 0.1998438, -0.1292186, 0.01734376,80.81176,5,4,30
16735,-2.363831,-1.866302,995.8519,-1,0.7749023, -0.1298828, 0.671875, 0.1998438, -0.1760936, 0.04859376,80.81176,5,4,30
16818,-3.349762,-4.335693,995.9411,-1,0.7744141, -0.1303711, 0.6748047, 0.1685938, -0.2854686, 0.01734376,80.81176,5,4,30
16949,-4.388596,-5.427429,995.9807,10.76042,0.7753906, -0.1323242, 0.6738281, 0.1998438, -0.2854686, 0.1267188,80.81176,5,4,30
17010,-2.434288,-0.4799805,995.8017,-1,0.7729492, -0.1313477, 0.6757813, 0.1998438, -0.3010936, 0.04859376,80.81176,5,4,30
17071,-1.162548,0.1091919,995.7807,-1,0.7719727, -0.1303711, 0.675293, 0.2467188, -0.2542186, 0.00171876,80.81176,5,4,30
17134,-1.514425,-1.866302,995.8519,-1,0.7729492, -0.1318359, 0.6757813, 0.2154688, -0.2229686, 0.03296876,80.81176,5,4,30
17199,-1.248485,-0.9825439,995.8201,-1,0.7739258, -0.1293945, 0.6757813, 0.2154688, -0.2542186, 0.06421876,80.81176,5,4,30
17371,-1.4101,-1.571716,995.8412,-1,0.7734375, -0.1308594, 0.6743164, 0.1998438, -0.2698436, 0.03296876,80.81176,5,4,30
17436,-2.439669,-3.469238,995.9097,-1,0.7734375, -0.1303711, 0.6762695, 0.2467188, -0.3167186, 0.09546876,80.81176,5,4,30
17503,-2.551561,-2.663452,995.8806,-1,0.7734375, -0.1303711, 0.6757813, 0.2310938, -0.2542186, 0.06421876,80.81176,5,4,30
17570,-1.368478,-0.1853943,995.7913,-1,0.7729492, -0.1298828, 0.6733398, 0.1685938, -0.3010936, 0.07984376,80.81176,5,4,30
17639,-2.271565,-3.174652,995.899,10.74664,0.7734375, -0.1308594, 0.675293, 0.1998438, -0.2542186, 0.06421876,80.81176,5,4,30
17714,-2.575815,-2.880066,995.8884,-1,0.7749023, -0.1298828, 0.675293, 0.2467188, -0.3323436, 0.04859376,80.81176,5,4,30
17783,-2.325032,-2.074249,995.8596,-1,0.7753906, -0.1308594, 0.6743164, 0.1842188, -0.3635936, 0.06421876,80.81176,5,4,30
17852,-2.455256,-2.58548,995.8781,-1,0.7744141, -0.128418, 0.6748047, 0.2310938, -0.3010936, 0.06421876,80.81176,5,4,30
17923,-1.9745,-1.493744,995.8385,10.74205,0.7744141, -0.1308594, 0.6757813, 0.2310938, -0.2542186, 0.04859376,80.81176,5,4,30
17993,-2.427283,-2.880066,995.8884,-1,0.7734375, -0.1308594, 0.6738281, 0.1685938, -0.2542186, 0.06421876,80.81176,5,4,30
18177,-2.216113,-2.004944,995.8569,10.73746,0.7714844, -0.128418, 0.6767578, 0.2310938, -0.2542186, 0.06421876,80.81176,5,4,30
18248,-2.257822,-2.29953,995.8676,-1,0.7739258, -0.1293945, 0.6748047, 0.2310938, -0.2073436, 0.03296876,80.81176,5,4,30
18320,-1.329915,-0.4020081,995.7991,-1,0.7739258, -0.1313477, 0.6728516, 0.1685938, -0.2698436, 0.07984376,80.81176,5,4,30
18395,-3.049418,-4.768921,995.9568,10.72828,0.7739258, -0.1303711, 0.6743164, 0.2154688, -0.2854686, 0.07984376,80.81176,5,4,30
18466,-2.817449,-2.58548,995.8781,-1,0.7729492, -0.1293945, 0.6748047, 0.1998438, -0.2542186, 0.01734376,80.81176,5,4,30
18543,-2.268237,-1.719025,995.8464,10.73746,0.7724609, -0.1298828, 0.6748047, 0.1685938, -0.3323436, 0.04859376,80.81176,5,4,30
18620,-1.335122,-0.4020081,995.7991,-1,0.7739258, -0.1298828, 0.6723633, 0.1842188, -0.1917186, 0.07984376,80.81176,5,4,30
18698,-1.670033,-2.004944,995.8569,10.74205,0.7758789, -0.1303711, 0.6748047, 0.2310938, -0.2854686, 0.07984376,80.81176,5,4,30
18775,-1.837488,-2.004944,995.8569,10.73746,0.7739258, -0.1308594, 0.6762695, 0.1529688, -0.3010936, 0.04859376,80.81176,5,4,30
18852,-1.921216,-2.004944,995.8569,10.72828,0.7714844, -0.1293945, 0.6762695, 0.1685938, -0.2229686, 0.04859376,80.81176,5,4,30
19037,-1.96308,-2.004944,995.8569,-1,0.7734375, -0.1264648, 0.6762695, 0.1685938, -0.1917186, 0.07984376,80.81176,5,4,30
19122,-0.6020234,0.7590332,995.7571,10.7191,0.7734375, -0.1298828, 0.675293, 0.2310938, -0.2698436, 0.06421876,80.81176,5,4,30
19203,-1.013216,-1.424408,995.836,10.71451,0.7744141, -0.1303711, 0.671875, 0.2310938, -0.2385936, -0.01390624,80.81176,5,4,30
19281,0.1631767,1.339569,995.736,-1,0.7739258, -0.1298828, 0.6743164, 0.1842188, -0.2542186, 0.07984376,80.81176,5,4,30
19358,-1.180817,-2.524811,995.8755,-1,0.7734375, -0.1303711, 0.6748047, 0.1842188, -0.3323436, 0.06421876,80.81176,5,4,30
19437,-1.59288,-2.004944,995.8569,-1,0.7739258, -0.1308594, 0.6762695, 0.1998438, -0.2229686, 0.1267188,80.81176,5,4,30
19518,-2.453087,-3.313293,995.9042,-1,0.7744141, -0.1298828, 0.6743164, 0.2154688, -0.3010936, 0.1110938,80.81176,5,4,30
19600,-1.791454,-1.129822,995.8253,10.7191,0.7734375, -0.1293945, 0.6733398, 0.1842188, -0.2542186, 0.07984376,80.81176,5,4,30
19728,-1.313345,-0.8352356,995.8148,-1,0.7695313, -0.1220703, 0.6713867, 0.1373438, -0.7229686, 0.04859376,80.81176,5,4,30
19789,-3.26208,-5.210815,995.9727,-1,0.7719727, -0.128418, 0.6767578, 0.1998438, -0.3635936, 0.06421876,80.81176,5,4,30
19964,-2.850126,-2.438171,995.8726,10.70992,0.7739258, -0.1323242, 0.6738281, 0.1529688, -0.2385936, 0.04859376,80.81176,5,4,30
20027,-2.098281,-1.346436,995.8331,-1,0.7734375, -0.1293945, 0.6738281, 0.1842188, -0.2229686, 0.07984376,80.81176,5,4,30
20091,-2.268226,-2.438171,995.8726,10.70533,0.7724609, -0.1303711, 0.675293, 0.1998438, -0.2854686, 0.09546876,80.81176,5,4,30
20154,-1.118503,0.03121948,995.7834,-1,0.7744141, -0.1298828, 0.6772461, 0.1529688, -0.2229686, 0.06421876,80.81176,5,4,30
20220,-0.9768695,-0.8352356,995.8148,-1,0.7734375, -0.1289063, 0.6743164, 0.2467188, -0.2542186, 0.06421876,80.81176,5,4,30
20286,-0.7587595,-0.5406494,995.8042,-1,0.7744141, -0.1293945, 0.675293, 0.2310938, -0.2229686, 0.06421876,80.81176,5,4,30
20356,-1.598465,-2.438171,995.8726,10.70073,0.769043, -0.1274414, 0.6757813, 0.1842188, -0.3167186, 0.04859376,80.81176,5,4,30
20423,-0.9265825,-0.2546997,995.7937,-1,0.7744141, -0.1289063, 0.6772461, 0.1998438, -0.2229686, 0.06421876,80.81176,5,4,30
20492,-0.3003885,0.3258057,995.7726,10.69614,0.7734375, -0.1289063, 0.6777344, 0.2310938, -0.2698436, 0.06421876,80.81176,5,4,30
20560,-1.772173,-3.243958,995.9017,-1,0.7744141, -0.1308594, 0.6733398, 0.2310938, -0.2542186, -0.02953124,80.81176,5,4,30
20733,-1.814904,-1.857635,995.8515,-1,0.7744141, -0.1279297, 0.6762695, 0.2310938, -0.2229686, 0.04859376,80.81176,5,4,30
20800,-1.688977,-1.563049,995.8411,-1,0.7729492, -0.1303711, 0.6743164, 0.2154688, -0.2385936, 0.07984376,80.81176,5,4,30
20870,-2.865042,-4.041107,995.9304,-1,0.7734375, -0.1293945, 0.675293, 0.1998438, -0.3010936, 0.01734376,80.81176,5,4,30
20942,-2.764247,-2.663452,995.8806,-1,0.7729492, -0.1298828, 0.6772461, 0.1998438, -0.2854686, 0.09546876,80.81176,5,4,30
21013,-0.9246192,0.9150085,995.7516,10.68237,0.7753906, -0.1308594, 0.675293, 0.1842188, -0.2385936, 0.06421876,80.81176,5,4,30
21085,-1.243834,-1.563049,995.8411,-1,0.7739258, -0.1298828, 0.6748047, 0.2154688, -0.2698436, 0.07984376,80.81176,5,4,30
21159,-0.1644129,0.9150085,995.7516,10.69155,0.7739258, -0.1298828, 0.6733398, 0.1685938, -0.2698436, 0.06421876,80.81176,5,4,30
21240,-0.716438,-1.268463,995.8304,-1,0.7719727, -0.1308594, 0.6757813, 0.1998438, -0.3167186, 0.00171876,80.81176,5,4,30
21313,-2.088505,-3.460571,995.9094,-1,0.7763672, -0.1303711, 0.6743164, 0.2154688, -0.2542186, 0.09546876,80.81176,5,4,30
21389,-1.678484,-1.268463,995.8304,-1,0.7739258, -0.1293945, 0.6767578, 0.1685938, -0.2229686, 0.1110938,80.81176,5,4,30
21576,-1.330514,-0.9825439,995.82,10.67319,0.7734375, -0.1328125, 0.6767578, 0.2623438, -0.2854686, 0.06421876,80.81176,5,4,30
21653,-3.885853,-6.441193,996.0172,-1,0.7734375, -0.1298828, 0.6733398, 0.1529688, -0.2385936, 0.07984376,80.81176,5,4,30
21728,-3.525919,-3.165985,995.8989,-1,0.7744141, -0.1318359, 0.6743164, 0.2310938, -0.3323436, 0.04859376,80.81176,5,4,30
21805,-2.106923,-0.6879272,995.8094,10.67778,0.7749023, -0.1303711, 0.6767578, 0.1998438, -0.2229686, 0.06421876,80.81176,5,4,30
21881,-2.090586,-2.074249,995.8594,-1,0.7739258, -0.1318359, 0.6738281, 0.2154688, -0.2542186, 0.03296876,80.81176,5,4,30
21958,-1.389257,-0.6879272,995.8094,-1,0.7744141, -0.1289063, 0.6757813, 0.1842188, -0.3323436, 0.07984376,80.81176,5,4,30
22039,-2.676196,-3.963135,995.9278,10.67319,0.7758789, -0.1298828, 0.6743164, 0.2623438, -0.2229686, 0.06421876,80.81176,5,4,30
22120,-2.773797,-2.871399,995.8884,10.6686,0.7739258, -0.1318359, 0.6743164, 0.2623438, -0.2698436, 0.06421876,80.81176,5,4,30
22202,-1.587903,-0.4020081,995.799,10.664,0.7734375, -0.1308594, 0.6728516, 0.1998438, -0.2229686, 0.04859376,80.81176,5,4,30
22283,-2.086691,-2.58548,995.8779,-1,0.7724609, -0.1308594, 0.6738281, 0.2467188, -0.2385936, 0.06421876,80.81176,5,4,30
22471,-2.188777,-2.290863,995.8672,10.65941,0.7724609, -0.1313477, 0.6743164, 0.1842188, -0.2229686, 0.09546876,80.81176,5,4,30
22603,-1.84126,-1.493744,995.8384,10.664,0.7734375, -0.128418, 0.675293, 0.1685938, -0.2698436, 0.04859376,80.81176,5,4,30
22665,-0.9743412,-0.1074219,995.7885,10.664,0.7744141, -0.1303711, 0.6762695, 0.1842188, -0.2698436, 0.03296876,80.81176,5,4,30
22726,-1.342349,-1.710358,995.8463,-1,0.7734375, -0.1289063, 0.6782227, 0.2310938, -0.2542186, 0.06421876,80.81176,5,4,30
22788,-1.669313,-1.996277,995.8567,-1,0.7739258, -0.1303711, 0.6743164, 0.2310938, -0.2698436, 0.09546876,80.81176,5,4,30
22851,-2.781556,-3.893799,995.9252,-1,0.7729492, -0.1293945, 0.675293, 0.1842188, -0.2385936, 0.03296876,80.81176,5,4,30
22918,-2.796158,-2.81076,995.8859,10.664,0.7739258, -0.1293945, 0.6757813, 0.1529688, -0.3010936, 0.06421876,80.81176,5,4,30
22984,-2.803459,-2.81076,995.8859,10.65482,0.7734375, -0.1303711, 0.6762695, 0.2310938, -0.3010936, 0.04859376,80.81176,5,4,30
23050,-1.563748,-0.3240356,995.7961,-1,0.7749023, -0.1313477, 0.6713867, 0.2310938, -0.2854686, 0.07984376,80.81176,5,4,30
23117,-2.035612,-2.507477,995.8751,10.65482,0.7744141, -0.1298828, 0.6728516, 0.1998438, -0.2854686, 0.06421876,80.81176,5,4,30
23295,-1.872985,-1.710358,995.8463,10.65482,0.7729492, -0.1313477, 0.675293, 0.1842188, -0.2385936, 0.09546876,80.81176,5,4,30
23365,-0.9555354,-0.03808594,995.7858,10.65482,0.7734375, -0.1298828, 0.6748047, 0.2467188, -0.2698436, 0.04859376,80.81176,5,4,30
23436,-1.987121,-3.018707,995.8935,10.64105,0.7734375, -0.128418, 0.675293, 0.2310938, -0.2542186, 0.1110938,80.81176,5,4,30
23507,-1.809753,-1.632385,995.8434,10.65023,0.7724609, -0.1308594, 0.675293, 0.2154688, -0.4104686, 0.06421876,80.81176,5,4,30
23580,-1.612762,-1.415771,995.8357,10.63646,0.7724609, -0.1279297, 0.6772461, 0.1998438, -0.1448436, 0.04859376,80.81176,5,4,30
23650,-3.151855,-4.690948,995.954,-1,0.7729492, -0.1289063, 0.6757813, 0.1998438, -0.2229686, 0.04859376,80.81176,5,4,30
23722,-1.993546,-0.8352356,995.8146,10.63646,0.7749023, -0.1313477, 0.6748047, 0.2154688, -0.2385936, 0.03296876,80.81176,5,4,30
23795,-3.342247,-4.690948,995.954,-1,0.7744141, -0.1318359, 0.6738281, 0.1842188, -0.2385936, 0.06421876,80.81176,5,4,30
23869,-3.47073,-3.599213,995.9146,10.64105,0.7763672, -0.1293945, 0.6733398, 0.1685938, -0.2385936, 0.07984376,80.81176,5,4,30
23942,-2.698851,-1.926971,995.8541,-1,0.7739258, -0.1303711, 0.6743164, 0.1217188, -0.2854686, 0.03296876,80.81176,5,4,30
24123,-2.165618,-1.632385,995.8434,10.64105,0.7739258, -0.1313477, 0.6748047, 0.1842188, -0.3479686, 0.07984376,80.81176,5,4,30
24197,-1.899002,-1.632385,995.8434,-1,0.7744141, -0.1308594, 0.6762695, 0.1998438, -0.2854686, 0.09546876,80.81176,5,4,30
24272,-1.622719,-1.346436,995.8333,-1,0.7724609, -0.1308594, 0.6757813, 0.2467188, -0.1917186, 0.09546876,80.81176,5,4,30
24347,-2.173405,-2.724091,995.8829,10.63646,0.7749023, -0.1298828, 0.6743164, 0.1998438, -0.2542186, 0.07984376,80.81176,5,4,30
24423,-2.305788,-2.438171,995.8727,-1,0.7734375, -0.1308594, 0.6767578, 0.1842188, -0.2229686, 0.03296876,80.81176,5,4,30
24500,-3.866609,-5.427429,995.9804,10.63187,0.7744141, -0.128418, 0.675293, 0.1685938, -0.3167186, 0.06421876,80.81176,5,4,30
24577,-3.550965,-3.235321,995.9015,-1,0.7724609, -0.1298828, 0.6738281, 0.1685938, -0.2698436, 0.03296876,80.81176,5,4,30
24656,-3.648743,-3.746521,995.9199,10.63187,0.7739258, -0.1303711, 0.6757813, 0.1998438, -0.2229686, 0.06421876,80.81176,5,4,30
24746,-2.640564,-1.632385,995.8434,10.62728,0.7744141, -0.1308594, 0.675293, 0.1842188, -0.2542186, 0.01734376,80.81176,5,4,30
24829,-2.937943,-3.235321,995.9015,10.62728,0.7739258, -0.1303711, 0.6738281, 0.1842188, -0.2854686, 0.09546876,80.81176,5,4,30
25020,-1.851936,-0.7659302,995.812,-1,0.7729492, -0.1298828, 0.6757813, 0.2310938, -0.2229686, 0.06421876,80.81176,5,4,30
25101,-1.707493,-1.563049,995.8409,-1,0.7744141, -0.1303711, 0.6762695, 0.2310938, -0.2385936, 0.09546876,80.81176,5,4,30
25181,-1.635271,-1.563049,995.8409,-1,0.7749023, -0.1313477, 0.6733398, 0.2154688, -0.2385936, 0.09546876,80.81176,5,4,30
25263,-1.308908,-0.9825439,995.8199,-1,0.7739258, -0.1313477, 0.6733398, 0.2154688, -0.2542186, 0.06421876,80.81176,5,4,30
25394,-2.384739,-3.460571,995.9094,-1,0.7768555, -0.1333008, 0.6723633, 0.2467188, -0.3323436, 0.06421876,80.81176,5,4,30
25459,-1.973894,-1.563049,995.8409,10.60891,0.7744141, -0.1289063, 0.6733398, 0.2310938, -0.2698436, 0.06421876,80.81176,5,4,30
25520,-2.275353,-2.576813,995.8777,-1,0.7744141, -0.1308594, 0.675293, 0.2154688, -0.3010936, 0.03296876,80.81176,5,4,30
25583,-1.078747,0.1178589,995.7804,-1,0.7724609, -0.1308594, 0.6733398, 0.1998438, -0.2542186, 0.04859376,80.81176,5,4,30
25648,-2.919501,-4.760254,995.9565,-1,0.7739258, -0.1313477, 0.6743164, 0.1998438, -0.2229686, 0.03296876,80.81176,5,4,30
25714,-3.042743,-3.165985,995.8988,-1,0.7729492, -0.1308594, 0.675293, 0.1842188, -0.2073436, 0.09546876,80.81176,5,4,30
25888,-1.172174,0.6983948,995.7594,-1,0.7744141, -0.1293945, 0.6728516, 0.2310938, -0.01984358, 0.09546876,80.81176,5,4,30
25952,-3.113507,-5.05484,995.9672,10.59973,0.7763672, -0.1318359, 0.6699219, 0.2467188, -0.3479686, 0.09546876,80.81176,5,4,30
26020,-2.299292,-1.485077,995.8383,-1,0.7734375, -0.1313477, 0.6738281, 0.1842188, -0.2229686, 0.04859376,80.81176,5,4,30
26089,-2.438052,-2.576813,995.8777,10.60891,0.7749023, -0.1303711, 0.6723633, 0.2310938, -0.3323436, 0.06421876,80.81176,5,4,30
26156,-1.56299,-0.6879272,995.8094,-1,0.7734375, -0.1298828, 0.6738281, 0.1998438, -0.3167186, 0.06421876,80.81176,5,4,30
26226,-0.9781654,-0.3933411,995.7988,10.59973,0.7724609, -0.1313477, 0.6767578, 0.2310938, -0.2542186, 0.1267188,80.81176,5,4,30
26294,-1.924782,-2.871399,995.8883,-1,0.7729492, -0.1298828, 0.6743164, 0.2467188, -0.2854686, 0.06421876,80.81176,5,4,30
26364,-3.489811,-5.05484,995.9672,-1,0.7729492, -0.1303711, 0.6762695, 0.1998438, -0.2854686, 0.07984376,80.81176,5,4,30
26436,-3.033312,-2.576813,995.8777,10.59973,0.7739258, -0.1279297, 0.6743164, 0.1842188, -0.3323436, 0.06421876,80.81176,5,4,30
26507,-3.896783,-4.760254,995.9565,10.60891,0.7729492, -0.1303711, 0.6738281, 0.1842188, -0.3167186, 0.07984376,80.81176,5,4,30
26681,-4.584118,-5.271454,995.9749,-1,0.7729492, -0.1298828, 0.675293, 0.2154688, -0.2542186, 0.07984376,80.81176,5,4,30
26751,-5.075094,-5.566071,995.9855,-1,0.7724609, -0.1303711, 0.675293, 0.1842188, -0.2385936, 0.06421876,80.81176,5,4,30
26823,-5.320582,-5.566071,995.9855,-1,0.7739258, -0.1298828, 0.6767578, 0.2310938, -0.2542186, 0.04859376,80.81176,5,4,30
26894,-2.168134,0.984314,995.7488,-1,0.7749023, -0.1318359, 0.6748047, 0.2154688, -0.2385936, 0.06421876,80.81176,5,4,30
26970,-2.775367,-3.382599,995.9066,-1,0.7739258, -0.1308594, 0.6733398, 0.2310938, -0.3167186, 0.07984376,80.81176,5,4,30
27046,-3.477558,-4.179749,995.9355,-1,0.7734375, -0.1308594, 0.6733398, 0.2310938, -0.3323436, 0.07984376,80.81176,5,4,30
27122,-3.828653,-4.179749,995.9355,10.59055,0.7753906, -0.1328125, 0.6738281, 0.1685938, -0.2542186, 0.04859376,80.81176,5,4,30
27199,-3.059758,-2.290863,995.8671,-1,0.7739258, -0.1308594, 0.6723633, 0.1998438, -0.2698436, 0.03296876,80.81176,5,4,30
27280,-4.165606,-5.271454,995.9749,10.59055,0.7734375, -0.1308594, 0.6748047, 0.1998438, -0.2229686, 0.1110938,80.81176,5,4,30
27358,-3.48385,-2.802094,995.8856,-1,0.7734375, -0.1293945, 0.6748047, 0.2154688, -0.3010936, 0.06421876,80.81176,5,4,30
27544,-1.903943,-0.3240356,995.7961,10.59055,0.7744141, -0.1313477, 0.6748047, 0.1217188, -0.2385936, 0.09546876,80.81176,5,4,30
27620,-1.508215,-1.112488,995.8248,-1,0.7734375, -0.128418, 0.6738281, 0.1998438, -0.2698436, 0.09546876,80.81176,5,4,30
27703,-3.64545,-5.782684,995.9934,10.58595,0.7739258, -0.1293945, 0.675293, 0.1998438, -0.2385936, 0.04859376,80.81176,5,4,30
27783,-2.378969,-1.112488,995.8248,10.58136,0.7734375, -0.1303711, 0.6757813, 0.2154688, -0.2385936, 0.06421876,80.81176,5,4,30
27861,-2.694504,-3.01004,995.8934,-1,0.7734375, -0.1308594, 0.6743164, 0.1998438, -0.2698436, 0.03296876,80.81176,5,4,30
27942,-4.892754,-7.091003,996.0408,-1,0.7744141, -0.1298828, 0.6748047, 0.2154688, -0.2854686, 0.03296876,80.81176,5,4,30
28022,-4.09869,-3.304626,995.9037,-1,0.7749023, -0.1308594, 0.6733398, 0.1998438, -0.2698436, 0.04859376,80.81176,5,4,30
28154,-3.701658,-3.304626,995.9037,10.58136,0.7719727, -0.1313477, 0.6787109, 0.2154688, -0.2073436, 0.09546876,80.81176,5,4,30
28216,-4.30461,-4.907562,995.9619,-1,0.7744141, -0.1303711, 0.6743164, 0.1529688, -0.2229686, 0.04859376,80.81176,5,4,30
28277,-3.804618,-3.304626,995.9037,-1,0.7744141, -0.1298828, 0.675293, 0.1842188, -0.2698436, 0.09546876,80.81176,5,4,30
28451,-2.974102,-2.143585,995.8618,-1,0.7739258, -0.1313477, 0.6748047, 0.1685938, -0.3167186, 0.06421876,80.81176,5,4,30
28526,-4.231085,-5.488068,995.9827,10.57677,0.7729492, -0.1303711, 0.6767578, 0.1842188, -0.2542186, 0.06421876,80.81176,5,4,30
28592,-2.385867,-0.5406494,995.8041,-1,0.7744141, -0.1293945, 0.675293, 0.1685938, -0.2229686, 0.06421876,80.81176,5,4,30
28658,-2.810594,-3.235321,995.9012,-1,0.7739258, -0.1293945, 0.6738281, 0.2154688, -0.2385936, 0.07984376,80.81176,5,4,30
28723,-3.165917,-3.52124,995.9117,-1,0.7734375, -0.1313477, 0.6777344, 0.1842188, -0.2542186, 0.03296876,80.81176,5,4,30
28791,-5.271435,-7.376953,996.051,-1,0.7744141, -0.1293945, 0.6713867, 0.1842188, -0.2854686, 0.06421876,80.81176,5,4,30
28860,-5.232458,-5.193481,995.9722,10.56759,0.7739258, -0.1298828, 0.6743164, 0.2467188, -0.2854686, 0.09546876,80.81176,5,4,30
28929,-5.871478,-6.510498,996.0195,-1,0.7734375, -0.1303711, 0.6748047, 0.1842188, -0.2698436, 0.04859376,80.81176,5,4,30
28997,-4.5534,-3.235321,995.9012,-1,0.7739258, -0.1293945, 0.675293, 0.1998438, -0.2229686, 0.03296876,80.81176,5,4,30
29069,-4.29292,-4.03244,995.9301,10.563,0.7744141, -0.128418, 0.671875, 0.1373438, -0.1917186, 0.06421876,80.81176,5,4,30
29247,-4.708548,-5.124176,995.9695,-1,0.7739258, -0.1303711, 0.6743164, 0.2467188, -0.3167186, 0.03296876,80.81176,5,4,30
29318,-4.370494,-4.03244,995.9301,10.54922,0.7739258, -0.1303711, 0.6777344, 0.2623438, -0.2542186, 0.03296876,80.81176,5,4,30
29389,-5.293203,-6.215912,996.009,10.55382,0.7739258, -0.1303711, 0.6743164, 0.1998438, -0.2854686, 0.07984376,80.81176,5,4,30
29460,-4.662822,-4.03244,995.9301,-1,0.7744141, -0.1289063, 0.6762695, 0.2467188, -0.3010936, 0.04859376,80.81176,5,4,30
29531,-5.292058,-5.921295,995.9984,10.54922,0.7744141, -0.1298828, 0.6723633, 0.1842188, -0.3010936, 0.04859376,80.81176,5,4,30
29604,-5.060824,-4.82959,995.959,-1,0.7749023, -0.1308594, 0.6762695, 0.1998438, -0.2698436, 0.09546876,80.81176,5,4,30
29679,-5.3481,-5.635376,995.988,-1,0.7719727, -0.1298828, 0.6757813, 0.2154688, -0.2229686, 0.1110938,80.81176,5,4,30
29752,-6.180566,-7.013031,996.038,-1,0.7739258, -0.1308594, 0.6767578, 0.2154688, -0.3010936, 0.07984376,80.81176,5,4,30
29828,-4.81625,-3.451935,995.9091,-1,0.7749023, -0.1303711, 0.6728516, 0.2467188, -0.2542186, 0.06421876,80.81176,5,4,30
29907,-3.583891,-2.351532,995.8695,10.55382,0.777832, -0.1313477, 0.6757813, 0.1529688, -0.01984358, 0.06421876,80.81176,5,4,30
30092,-3.370605,-3.157318,995.8984,-1,0.7739258, -0.1298828, 0.675293, 0.2154688, -0.3635936, 0.1110938,80.81176,5,4,30
30168,-4.50299,-5.635376,995.988,-1,0.7744141, -0.1293945, 0.6762695, 0.1842188, -0.2698436, 0.09546876,80.81176,5,4,30
30244,-4.228729,-3.954468,995.9274,-1,0.7729492, -0.1303711, 0.6748047, 0.1998438, -0.2542186, 0.06421876,80.81176,5,4,30
30322,-4.932053,-5.635376,995.988,-1,0.7724609, -0.1313477, 0.675293, 0.2154688, -0.2385936, 0.1110938,80.81176,5,4,30
30401,-4.44326,-3.954468,995.9274,10.53545,0.7758789, -0.1289063, 0.6728516, 0.1529688, -0.2542186, 0.09546876,80.81176,5,4,30
30478,-4.744732,-5.046204,995.9668,10.54004,0.7749023, -0.1308594, 0.675293, 0.1685938, -0.2698436, 0.04859376,80.81176,5,4,30
30559,-3.803732,-2.862732,995.8879,-1,0.7719727, -0.1303711, 0.6723633, 0.2310938, -0.1760936, 0.1110938,80.81176,5,4,30
30637,-3.333232,-2.862732,995.8879,-1,0.7724609, -0.1308594, 0.6728516, 0.2310938, -0.1604686, 0.07984376,80.81176,5,4,30
30716,-4.73557,-6.137909,996.0063,-1,0.7739258, -0.1333008, 0.6762695, 0.1685938, -0.2073436, 0.04859376,80.81176,5,4,30
30797,-3.799151,-2.862732,995.8879,10.54004,0.7729492, -0.1308594, 0.6743164, 0.1842188, -0.2229686, 0.06421876,80.81176,5,4,30
31032,-3.586542,-3.373932,995.9063,-1,0.7817383, -0.1381836, 0.6713867, 0.5123438, -0.1135936, 0.1267188,80.81176,5,4,30
31092,-4.026105,-4.465668,995.9458,10.53086,0.7485352, -0.1396484, 0.6831055, 0.1060938, -0.2229686, -0.04515624,80.81176,5,4,30
31154,-4.245886,-4.465668,995.9458,-1,0.7524414, -0.1474609, 0.6894531, 0.3092188, 0.8082814, -0.04515624,80.81176,5,4,30
31220,-3.407016,-2.568146,995.8773,10.52627,0.7729492, -0.1328125, 0.675293, 0.1998438, -0.3010936, 0.01734376,80.81176,5,4,30
31285,-4.334917,-5.262817,995.9746,10.52627,0.7763672, -0.1308594, 0.6728516, 0.1998438, -0.1604686, 0.09546876,80.81176,5,4,30
31352,-3.308556,-2.282196,995.8669,10.52627,0.7768555, -0.1289063, 0.6728516, 0.1998438, -0.3635936, 0.1423438,80.81176,5,4,30
31417,-3.596844,-3.885132,995.9247,-1,0.7763672, -0.1254883, 0.6713867, 0.2467188, -0.3948436, 0.09546876,80.81176,5,4,30
31484,-4.975683,-6.354523,996.014,-1,0.7724609, -0.1323242, 0.6748047, 0.1685938, -0.2385936, 0.09546876,80.81176,5,4,30
31552,-4.720675,-4.465668,995.9458,-1,0.7719727, -0.1323242, 0.6748047, 0.2310938, -0.09796858, 0.06421876,80.81176,5,4,30
31619,-4.302904,-3.885132,995.9247,-1,0.7739258, -0.1293945, 0.6757813, 0.1998438, -0.2698436, 0.06421876,80.81176,5,4,30
31797,-3.838418,-3.373932,995.9063,-1,0.7753906, -0.1298828, 0.6723633, 0.1998438, -0.3167186, 0.09546876,80.81176,5,4,30
31866,-2.770054,-1.701691,995.8459,10.51249,0.7773438, -0.128418, 0.6699219, 0.1529688, -0.2698436, 0.1267188,80.81176,5,4,30
31934,-4.419329,-6.068604,996.0036,-1,0.7783203, -0.1264648, 0.6689453, 0.2623438, -0.4885936, 0.09546876,80.81176,5,4,30
32013,-3.311776,-2.204224,995.8642,10.51249,0.7709961, -0.1323242, 0.6772461, 0.1842188, -0.1292186, 0.1110938,80.81176,5,4,30
32085,-3.849736,-4.387695,995.9431,10.51249,0.7749023, -0.1298828, 0.6733398, 0.2310938, -0.1760936, 0.09546876,80.81176,5,4,30
32157,-3.867434,-3.885132,995.9247,-1,0.7719727, -0.1318359, 0.675293, 0.1685938, -0.2229686, 0.07984376,80.81176,5,4,30
32228,-4.968019,-6.068604,996.0036,-1,0.7861328, -0.1201172, 0.6518555, 0.1998438, -1.285469, 0.06421876,80.81176,5,4,30
32299,-6.207139,-7.446259,996.0535,-1,0.7768555, -0.1352539, 0.6650391, 0.1842188, -0.9417186, 0.07984376,80.81176,5,4,30
32370,-4.751549,-3.295959,995.9037,-1,0.7705078, -0.1293945, 0.6757813, 0.2154688, -0.1604686, 0.04859376,80.81176,5,4,30
32442,-2.784725,-0.8179016,995.8141,-1,0.7763672, -0.1298828, 0.675293, 0.1373438, -0.3010936, 0.1267188,80.81176,5,4,30
32623,-2.494474,-2.204224,995.8642,-1,0.7739258, -0.1293945, 0.6738281, 0.1529688, -0.2385936, 0.07984376,80.81176,5,4,30
32697,-3.441085,-4.387695,995.9431,-1,0.7749023, -0.1313477, 0.675293, 0.2310938, -0.2698436, 0.06421876,80.81176,5,4,30
32771,-2.679695,-1.918304,995.8537,-1,0.7749023, -0.128418, 0.6762695, 0.2779688, -0.2698436, 0.06421876,80.81176,5,4,30
32845,-2.840534,-3.001373,995.8931,-1,0.7719727, -0.1279297, 0.6738281, 0.1529688, -0.3010936, 0.07984376,80.81176,5,4,30
32924,-2.777979,-2.715424,995.8824,10.50331,0.7744141, -0.1308594, 0.675293, 0.1998438, -0.2385936, 0.07984376,80.81176,5,4,30
33002,-2.348142,-1.918304,995.8537,-1,0.7749023, -0.1313477, 0.6748047, 0.2623438, -0.2854686, 0.04859376,80.81176,5,4,30
33078,-2.674757,-3.001373,995.8931,-1,0.7724609, -0.1289063, 0.675293, 0.2779688, -0.2854686, 0.09546876,80.81176,5,4,30
33158,-2.838065,-3.001373,995.8931,10.5079,0.7744141, -0.1308594, 0.671875, 0.2467188, -0.2854686, 0.09546876,80.81176,5,4,30
33234,-3.175319,-3.512573,995.9114,-1,0.7744141, -0.1293945, 0.6748047, 0.1529688, -0.2385936, 0.06421876,80.81176,5,4,30
33315,-2.945371,-2.715424,995.8824,10.49872,0.7744141, -0.1308594, 0.6748047, 0.2154688, -0.3323436, 0.06421876,80.81176,5,4,30
33503,-3.081679,-3.217987,995.9007,-1,0.7739258, -0.1313477, 0.6738281, 0.1685938, -0.2073436, 0.04859376,80.81176,5,4,30
33582,-2.751258,-2.420837,995.872,-1,0.7744141, -0.1313477, 0.6743164, 0.1998438, -0.2854686, 0.1110938,80.81176,5,4,30
33666,-2.733341,-2.715424,995.8824,10.48954,0.7749023, -0.1298828, 0.6748047, 0.1998438, -0.2229686, 0.06421876,80.81176,5,4,30
33747,-3.521517,-4.309692,995.9402,10.49413,0.7749023, -0.1293945, 0.6748047, 0.1998438, -0.2698436, 0.09546876,80.81176,5,4,30
33879,-2.971177,-2.420837,995.872,10.49413,0.7739258, -0.1293945, 0.675293, 0.2467188, -0.2385936, 0.03296876,80.81176,5,4,30
33940,-2.405755,-1.840332,995.851,-1,0.7734375, -0.1313477, 0.6748047, 0.2467188, -0.2542186, 0.03296876,80.81176,5,4,30
34006,-2.378643,-2.351532,995.8694,10.48954,0.7719727, -0.1308594, 0.675293, 0.1685938, -0.2229686, 0.07984376,80.81176,5,4,30
34072,-3.890036,-5.401428,995.9796,10.48954,0.7744141, -0.1303711, 0.675293, 0.1217188, -0.2229686, 0.04859376,80.81176,5,4,30
34139,-4.099864,-4.309692,995.9402,10.48036,0.7724609, -0.1303711, 0.6733398, 0.1998438, -0.2385936, 0.06421876,80.81176,5,4,30
34206,-3.372991,-2.646118,995.8801,-1,0.7739258, -0.1303711, 0.671875, 0.1998438, -0.2385936, 0.06421876,80.81176,5,4,30
34378,-3.408129,-3.443268,995.9088,-1,0.7744141, -0.1308594, 0.675293, 0.2467188, -0.2385936, 0.06421876,80.81176,5,4,30
34445,-3.027124,-2.646118,995.8801,-1,0.7739258, -0.1303711, 0.6738281, 0.1842188, -0.3167186, 0.09546876,80.81176,5,4,30
34512,-3.781049,-4.534973,995.9482,-1,0.7744141, -0.1289063, 0.6723633, 0.1998438, -0.2854686, 0.06421876,80.81176,5,4,30
34581,-4.305319,-4.82959,995.9589,10.48036,0.7744141, -0.1293945, 0.6738281, 0.2310938, -0.2229686, 0.06421876,80.81176,5,4,30
34649,-3.181133,-2.056946,995.8589,-1,0.7729492, -0.1308594, 0.675293, 0.1842188, -0.2542186, 0.04859376,80.81176,5,4,30
34720,-3.459493,-3.737854,995.9196,-1,0.7744141, -0.1303711, 0.6723633, 0.2623438, -0.2229686, 0.06421876,80.81176,5,4,30
34789,-3.304072,-3.148651,995.8984,-1,0.7749023, -0.1303711, 0.6748047, 0.1373438, -0.2854686, 0.07984376,80.81176,5,4,30
34862,-3.226362,-3.148651,995.8984,10.47576,0.7739258, -0.1289063, 0.675293, 0.2310938, -0.2385936, 0.06421876,80.81176,5,4,30
34937,-3.334815,-3.443268,995.9088,10.47117,0.7753906, -0.1289063, 0.6743164, 0.2310938, -0.2698436, 0.06421876,80.81176,5,4,30
35008,-3.389041,-3.443268,995.9088,-1,0.7739258, -0.1303711, 0.675293, 0.2154688, -0.2854686, 0.04859376,80.81176,5,4,30
35189,-4.360582,-5.332123,995.9772,-1,0.7734375, -0.1313477, 0.6748047, 0.1998438, -0.3010936, 0.04859376,80.81176,5,4,30
35263,-2.662896,-0.96521,995.8195,10.47117,0.7744141, -0.1298828, 0.6738281, 0.2154688, -0.2542186, 0.1267188,80.81176,5,4,30
35335,-4.253109,-5.843323,995.9955,-1,0.7744141, -0.128418, 0.6743164, 0.1842188, -0.3167186, 0.1267188,80.81176,5,4,30
35410,-3.155028,-2.056946,995.8589,-1,0.7739258, -0.1308594, 0.6762695, 0.2310938, -0.1917186, 0.04859376,80.81176,5,4,30
35483,-2.861587,-2.568146,995.8772,-1,0.7753906, -0.1303711, 0.671875, 0.1842188, -0.2854686, 0.09546876,80.81176,5,4,30
35568,-3.806587,-4.751587,995.9561,10.46658,0.7753906, -0.1308594, 0.6733398, 0.1685938, -0.3010936, 0.06421876,80.81176,5,4,30
35645,-2.242923,-0.6792603,995.809,-1,0.7744141, -0.1303711, 0.6728516, 0.1529688, -0.2698436, 0.06421876,80.81176,5,4,30
35721,-4.588991,-6.935059,996.035,-1,0.7729492, -0.1303711, 0.6743164, 0.1998438, -0.3323436, 0.03296876,80.81176,5,4,30
35800,-3.725862,-2.862732,995.8879,-1,0.7739258, -0.1308594, 0.6738281, 0.1685938, -0.2542186, 0.09546876,80.81176,5,4,30
35879,-3.39827,-3.070679,995.8954,-1,0.7739258, -0.1289063, 0.6748047, 0.1842188, -0.2229686, 0.06421876,80.81176,5,4,30
36068,-3.676369,-3.954468,995.9272,10.4574,0.7734375, -0.1298828, 0.675293, 0.1842188, -0.2229686, 0.07984376,80.81176,5,4,30
36146,-3.919392,-4.162415,995.9349,-1,0.7729492, -0.1303711, 0.675293, 0.1842188, -0.1760936, 0.04859376,80.81176,5,4,30
36226,-2.00474,-0.09008789,995.7878,-1,0.7734375, -0.1308594, 0.6743164, 0.1529688, -0.2698436, 0.06421876,80.81176,5,4,30
36308,-2.286443,-2.568146,995.8772,-1,0.7729492, -0.1328125, 0.6757813, 0.1998438, -0.2542186, 0.07984376,80.81176,5,4,30
36387,-2.825854,-3.365265,995.9061,-1,0.7724609, -0.1313477, 0.6743164, 0.2310938, -0.3010936, 0.04859376,80.81176,5,4,30
36469,-2.151132,-1.47641,995.8378,10.45281,0.7749023, -0.1318359, 0.6728516, 0.1998438, -0.3635936, 0.07984376,80.81176,5,4,30
36551,-2.610905,-3.070679,995.8954,-1,0.7753906, -0.1313477, 0.6762695, 0.2154688, -0.1604686, 0.06421876,80.81176,5,4,30
36682,-3.38666,-4.162415,995.9349,-1,0.7753906, -0.1308594, 0.675293, 0.1998438, -0.2698436, 0.04859376,80.81176,5,4,30
36744,-3.92183,-4.457001,995.9456,10.44822,0.7749023, -0.128418, 0.6743164, 0.1842188, -0.2229686, 0.09546876,80.81176,5,4,30
36806,-4.042122,-4.162415,995.9349,-1,0.7749023, -0.1298828, 0.6733398, 0.2310938, -0.3167186, 0.07984376,80.81176,5,4,30
36978,-3.266148,-2.490173,995.8745,-1,0.7734375, -0.1308594, 0.6748047, 0.1998438, -0.2854686, 0.07984376,80.81176,5,4,30
37040,-3.168413,-3.070679,995.8954,-1,0.7734375, -0.1293945, 0.675293, 0.1842188, -0.3167186, 0.06421876,80.81176,5,4,30
37105,-2.283425,-1.398438,995.8351,-1,0.7724609, -0.1342773, 0.6713867, 0.1998438, -0.03546858, 0.09546876,80.81176,5,4,30
37171,-2.131184,-1.978943,995.856,10.45281,0.7739258, -0.1264648, 0.6674805, 0.1685938, -0.5198436, 0.06421876,80.81176,5,4,30
37237,-2.055063,-1.978943,995.856,10.46199,0.7758789, -0.1313477, 0.6708984, 0.1842188, -0.2385936, 0.06421876,80.81176,5,4,30
37305,-2.818471,-3.581879,995.914,10.44822,0.7739258, -0.1303711, 0.675293, 0.1842188, -0.2542186, 0.04859376,80.81176,5,4,30
37375,-2.801615,-2.78476,995.885,10.4574,0.7749023, -0.1303711, 0.6738281, 0.1685938, -0.3010936, 0.1110938,80.81176,5,4,30
37443,-4.027883,-5.25415,995.9743,-1,0.7753906, -0.1308594, 0.675293, 0.1998438, -0.2229686, 0.04859376,80.81176,5,4,30
37513,-3.804881,-3.581879,995.914,-1,0.7739258, -0.1298828, 0.6743164, 0.2310938, -0.2698436, 0.07984376,80.81176,5,4,30
37584,-3.546087,-3.287292,995.9034,10.44822,0.7744141, -0.1293945, 0.6748047, 0.2154688, -0.2542186, 0.04859376,80.81176,5,4,30
37760,-3.563982,-3.581879,995.914,-1,0.7739258, -0.1289063, 0.6743164, 0.2310938, -0.2229686, 0.01734376,80.81176,5,4,30
37829,-3.572931,-3.581879,995.914,-1,0.7724609, -0.1323242, 0.6738281, 0.1842188, -0.3167186, 0.09546876,80.81176,5,4,30
37900,-3.031552,-2.490173,995.8745,-1,0.7734375, -0.1303711, 0.675293, 0.2310938, -0.2542186, 0.06421876,80.81176,5,4,30
37971,-3.306715,-3.581879,995.914,-1,0.7739258, -0.1298828, 0.6748047, 0.2154688, -0.2229686, 0.06421876,80.81176,5,4,30
38044,-3.444297,-3.581879,995.914,-1,0.7744141, -0.1308594, 0.6738281, 0.1842188, -0.3167186, 0.09546876,80.81176,5,4,30
38118,-3.803356,-4.162415,995.9349,10.44362,0.7729492, -0.128418, 0.6762695, 0.1998438, -0.2542186, 0.06421876,80.81176,5,4,30
38192,-3.294058,-2.78476,995.885,-1,0.7719727, -0.1298828, 0.6733398, 0.1998438, -0.2229686, 0.00171876,80.81176,5,4,30
38276,-4.529704,-5.76535,995.9929,10.44362,0.7724609, -0.1298828, 0.675293, 0.2154688, -0.2229686, 0.1110938,80.81176,5,4,30
38350,-2.673803,-0.8179016,995.814,-1,0.7753906, -0.1313477, 0.6738281, 0.2154688, -0.2229686, 0.04859376,80.81176,5,4,30
38425,-3.673709,-4.673615,995.9534,10.44362,0.7734375, -0.1298828, 0.6748047, 0.2467188, -0.2542186, 0.1110938,80.81176,5,4,30
38608,-3.883394,-4.093079,995.9323,-1,0.7749023, -0.1303711, 0.675293, 0.1998438, -0.2542186, 0.03296876,80.81176,5,4,30
38685,-3.186784,-2.490173,995.8745,-1,0.7734375, -0.1298828, 0.6748047, 0.2310938, -0.1917186, 0.03296876,80.81176,5,4,30
38765,-3.384331,-3.581879,995.914,-1,0.7734375, -0.1298828, 0.675293, 0.2467188, -0.3010936, 0.07984376,80.81176,5,4,30
38843,-4.574841,-5.76535,995.9929,-1,0.7739258, -0.1303711, 0.6757813, 0.1529688, -0.1917186, 0.06421876,80.81176,5,4,30
38923,-5.170095,-5.76535,995.9929,10.43444,0.7729492, -0.1293945, 0.675293, 0.1685938, -0.3010936, 0.09546876,80.81176,5,4,30
39002,-2.993999,-0.8179016,995.814,-1,0.7734375, -0.1298828, 0.6738281, 0.1685938, -0.2073436, 0.04859376,80.81176,5,4,30
39083,-2.599111,-2.204224,995.864,-1,0.7714844, -0.128418, 0.6748047, 0.1842188, -0.2854686, 0.09546876,80.81176,5,4,30
39168,-2.943202,-3.287292,995.9034,10.43444,0.7744141, -0.1298828, 0.6733398, 0.1842188, -0.2542186, 0.00171876,80.81176,5,4,30
39259,-4.900144,-6.857086,996.0323,-1,0.7749023, -0.1308594, 0.6733398, 0.1685938, -0.2854686, 0.06421876,80.81176,5,4,30
39341,-3.404891,-1.909637,995.8533,-1,0.7749023, -0.1293945, 0.6762695, 0.1685938, -0.2542186, 0.07984376,80.81176,5,4,30
39579,-4.294853,-5.184814,995.9716,-1,0.7753906, -0.1289063, 0.6728516, 0.2310938, -0.3479686, 0.07984376,80.81176,5,4,30
39640,-3.648113,-3.001373,995.8928,10.43444,0.7749023, -0.1313477, 0.671875, 0.2154688, -0.4104686, 0.09546876,80.81176,5,4,30
39701,-4.416464,-5.184814,995.9716,10.43444,0.7729492, -0.1298828, 0.6738281, 0.2154688, -0.2854686, 0.09546876,80.81176,5,4,30
39764,-3.310344,-2.204224,995.864,-1,0.7739258, -0.1308594, 0.6772461, 0.1842188, -0.2854686, 0.06421876,80.81176,5,4,30
39829,-3.155859,-3.001373,995.8928,-1,0.7729492, -0.1293945, 0.6762695, 0.1998438, -0.3010936, 0.09546876,80.81176,5,4,30
39894,-4.170337,-5.184814,995.9716,10.43903,0.7729492, -0.1308594, 0.6762695, 0.2154688, -0.3167186, 0.07984376,80.81176,5,4,30
39956,-4.677576,-5.184814,995.9716,-1,0.7739258, -0.1289063, 0.6757813, 0.1842188, -0.2229686, 0.03296876,80.81176,5,4,30
40023,-3.839474,-3.001373,995.8928,-1,0.7744141, -0.1289063, 0.671875, 0.1217188, -0.2385936, 0.09546876,80.81176,5,4,30
40090,-2.874556,-1.909637,995.8533,-1,0.7729492, -0.1303711, 0.6762695, 0.2310938, -0.2229686, 0.04859376,80.81176,5,4,30
40158,-4.17266,-5.470764,995.9822,-1,0.7744141, -0.1298828, 0.6767578, 0.1373438, -0.2229686, 0.1267188,80.81176,5,4,30
40335,-3.439708,-2.706757,995.8822,10.43444,0.7739258, -0.1313477, 0.6748047, 0.1842188, -0.2698436, 0.09546876,80.81176,5,4,30
40406,-4.710836,-5.981964,996.0005,10.42985,0.7744141, -0.1293945, 0.6738281, 0.1373438, -0.2698436, 0.03296876,80.81176,5,4,30
40472,-3.561503,-2.41217,995.8717,-1,0.7739258, -0.1303711, 0.6757813, 0.2154688, -0.2542186, 0.1110938,80.81176,5,4,30
40544,-2.440969,-1.320435,995.8323,10.43444,0.7724609, -0.1313477, 0.675293, 0.2623438, -0.1760936, 0.09546876,80.81176,5,4,30
40611,-2.972438,-3.503906,995.9112,-1,0.7734375, -0.1328125, 0.6748047, 0.1685938, -0.1292186, 0.06421876,80.81176,5,4,30
40682,-2.692304,-2.41217,995.8717,-1,0.7724609, -0.1298828, 0.6757813, 0.1685938, -0.1604686, 0.06421876,80.81176,5,4,30
40753,-2.552237,-2.41217,995.8717,10.42526,0.7744141, -0.1303711, 0.6791992, 0.2310938, -0.2854686, 0.06421876,80.81176,5,4,30
40825,-2.482204,-2.41217,995.8717,-1,0.7729492, -0.1308594, 0.6767578, 0.1685938, -0.2073436, 0.06421876,80.81176,5,4,30
40900,-2.156934,-1.831665,995.8506,10.42526,0.7734375, -0.1298828, 0.675293, 0.1998438, -0.2073436, 0.09546876,80.81176,5,4,30
40976,-2.540153,-2.92337,995.8901,-1,0.7729492, -0.1293945, 0.6826172, 0.2467188, -0.3167186, 0.1110938,80.81176,5,4,30
41159,-3.277629,-4.015106,995.9295,-1,0.7734375, -0.1303711, 0.6738281, 0.1529688, -0.2698436, 0.06421876,80.81176,5,4,30
41234,-3.646368,-4.015106,995.9295,10.42526,0.7739258, -0.1303711, 0.6748047, 0.2310938, -0.2229686, 0.07984376,80.81176,5,4,30
41311,-4.121005,-4.595642,995.9506,-1,0.7739258, -0.1303711, 0.6733398, 0.1685938, -0.2698436, 0.04859376,80.81176,5,4,30
41387,-4.613924,-5.106842,995.9689,-1,0.7744141, -0.1308594, 0.6748047, 0.1998438, -0.1917186, 0.1267188,80.81176,5,4,30
41465,-3.370087,-2.126251,995.8613,-1,0.7739258, -0.128418, 0.6713867, 0.1842188, -0.3323436, 0.09546876,80.81176,5,4,30
41546,-3.83989,-4.309692,995.9401,-1,0.7753906, -0.1308594, 0.6757813, 0.2467188, -0.2385936, 0.07984376,80.81176,5,4,30
41626,-3.38163,-2.92337,995.8901,10.41608,0.7744141, -0.1313477, 0.6748047, 0.1842188, -0.2542186, 0.09546876,80.81176,5,4,30
41706,-3.698368,-4.015106,995.9295,10.42526,0.7744141, -0.1308594, 0.6743164, 0.2310938, -0.2542186, 0.06421876,80.81176,5,4,30
41787,-2.91231,-2.126251,995.8613,10.42067,0.7734375, -0.1303711, 0.6748047, 0.1685938, -0.3010936, 0.03296876,80.81176,5,4,30
41869,-2.371987,-1.831665,995.8506,-1,0.7744141, -0.1289063, 0.6743164, 0.1842188, -0.3479686, 0.09546876,80.81176,5,4,30
42058,-3.739415,-5.106842,995.9689,-1,0.7739258, -0.1313477, 0.675293, 0.2154688, -0.3323436, 0.09546876,80.81176,5,4,30
42140,-4.024553,-4.309692,995.9401,-1,0.7729492, -0.1303711, 0.6743164, 0.1685938, -0.3010936, 0.06421876,80.81176,5,4,30
42223,-3.473962,-2.92337,995.8901,10.41608,0.7734375, -0.1303711, 0.6777344, 0.1685938, -0.2698436, 0.04859376,80.81176,5,4,30
42353,-3.744534,-4.015106,995.9295,-1,0.7744141, -0.1303711, 0.6772461, 0.1529688, -0.2385936, 0.09546876,80.81176,5,4,30
42417,-3.333952,-2.92337,995.8901,10.41148,0.7744141, -0.1318359, 0.6743164, 0.1842188, -0.2385936, 0.06421876,80.81176,5,4,30
42479,-3.384276,-3.434601,995.9085,-1,0.7749023, -0.1318359, 0.6748047, 0.1842188, -0.1917186, 0.06421876,80.81176,5,4,30
42544,-3.552398,-3.72052,995.9189,10.41608,0.7734375, -0.1308594, 0.6708984, 0.2154688, -0.2698436, 0.1110938,80.81176,5,4,30
42607,-1.998871,-0.445343,995.8006,-1,0.7739258, -0.1298828, 0.6743164, 0.1998438, -0.2542186, 0.04859376,80.81176,5,4,30
42671,-3.552856,-5.106842,995.9689,-1,0.7749023, -0.1303711, 0.6743164, 0.1529688, -0.1760936, 0.1110938,80.81176,5,4,30
42737,-2.401993,-1.251129,995.8296,-1,0.7739258, -0.1313477, 0.6738281, 0.1842188, -0.3323436, 0.06421876,80.81176,5,4,30
42919,-3.208549,-4.015106,995.9295,10.41608,0.7753906, -0.1293945, 0.6748047, 0.1685938, -0.3010936, 0.09546876,80.81176,5,4,30
42987,-3.867428,-4.526306,995.9479,-1,0.7724609, -0.1293945, 0.6743164, 0.1373438, -0.1917186, 0.06421876,80.81176,5,4,30
43057,-2.411985,-0.956543,995.819,10.40689,0.7744141, -0.1303711, 0.6738281, 0.1529688, -0.2698436, 0.06421876,80.81176,5,4,30
43126,-1.684264,-0.956543,995.819,-1,0.7758789, -0.1298828, 0.6748047, 0.1998438, -0.2698436, 0.06421876,80.81176,5,4,30
43196,-3.105285,-4.526306,995.9479,-1,0.7739258, -0.1293945, 0.6762695, 0.1998438, -0.2698436, 0.07984376,80.81176,5,4,30
43267,-3.269943,-3.434601,995.9085,10.40689,0.7729492, -0.1293945, 0.6748047, 0.1842188, -0.2385936, 0.06421876,80.81176,5,4,30
43334,-1.420082,0.4297791,995.7692,-1,0.7724609, -0.1293945, 0.6738281, 0.1685938, -0.2229686, 0.06421876,80.81176,5,4,30
43403,-2.973194,-4.526306,995.9479,10.39771,0.7749023, -0.1289063, 0.6762695, 0.1685938, -0.2698436, 0.07984376,80.81176,5,4,30
43476,-4.001032,-5.02887,995.9662,-1,0.7739258, -0.1293945, 0.6748047, 0.1998438, -0.2385936, 0.06421876,80.81176,5,4,30
43548,-3.128629,-2.256226,995.8661,-1,0.7749023, -0.1318359, 0.6743164, 0.2154688, -0.3010936, 0.09546876,80.81176,5,4,30
43731,-2.692427,-2.256226,995.8661,-1,0.7739258, -0.1303711, 0.6743164, 0.1998438, -0.2385936, 0.07984376,80.81176,5,4,30
43805,-3.717674,-4.74292,995.9559,10.39312,0.7729492, -0.1308594, 0.6748047, 0.2310938, -0.2385936, 0.06421876,80.81176,5,4,30
43879,-3.281536,-2.845398,995.8873,-1,0.7734375, -0.1313477, 0.6757813, 0.1685938, -0.2854686, 0.04859376,80.81176,5,4,30
43954,-2.920507,-2.559479,995.877,-1,1.077637, -0.06298828, 0.9267578, -4.097031, -10.53547, 8.157969,80.81176,5,4,30
44030,-2.739993,-2.559479,995.877,-1,0.7172852, -0.1679688, 0.6435547, 1.027969, 4.902031, -1.373281,80.81176,5,4,30
44107,-3.048295,-3.356598,995.9056,-1,0.7739258, -0.1782227, 0.6518555, 1.465469, 5.433281, -1.435781,80.81176,5,4,30
44183,-3.748315,-4.448334,995.9451,-1,0.7988281, -0.1508789, 0.5800781, 0.05921876, -7.066719, 1.204844,80.81176,5,4,30
44259,-3.552456,-3.356598,995.9056,-1,0.8491211, -0.1396484, 0.7402344, -0.3626562, -3.847969, 0.5173438,80.81176,5,4,30
44339,-3.454527,-3.356598,995.9056,-1,0.7431641, -0.1225586, 0.7011719, -0.4095312, 1.620781, -0.3264062,80.81176,5,4,30
44417,-2.565108,-1.67569,995.8452,-1,0.7709961, -0.1308594, 0.671875, -0.1595312, -1.222969, 0.5642188,80.81176,5,4,30
44603,-1.323265,-0.0814209,995.7874,10.38393,0.7285156, -0.1630859, 0.6225586, 0.7935938, -1.394844, -0.4670312,80.81176,5,4,30
44681,-1.64677,-1.970276,995.8558,-1,0.7524414, -0.1220703, 0.6635742, 0.09046877, -4.988594, 0.3454688,80.81176,5,4,30
44765,-1.808523,-1.970276,995.8558,10.38853,0.7841797, -0.1323242, 0.6425781, 0.6529688, 0.4957814, -0.3889062,80.81176,5,4,30
44847,-0.9449719,-0.0814209,995.7874,10.38853,0.7709961, -0.1186523, 0.6733398, -0.01890624, -2.222969, 0.2204688,80.81176,5,4,30
44928,-1.457624,-1.970276,995.8558,10.38853,0.7958984, -0.1191406, 0.7050781, -0.3626562, -6.582344, 0.6892188,80.81176,5,4,30
45010,-1.71395,-1.970276,995.8558,-1,0.7871094, -0.125, 0.722168, -0.05015624, 0.3551564, 0.04859376,80.81176,5,4,30
45138,-2.240688,-2.767426,995.8845,-1,0.7758789, -0.1425781, 0.6958008, -0.1282812, 1.120781, 0.1892188,80.81176,5,4,30
45198,-2.248457,-2.256226,995.8661,-1,0.7729492, -0.1274414, 0.6870117, 0.4029688, 1.730156, 0.1579688,80.81176,5,4,30
45262,-2.109366,-1.970276,995.8558,-1,0.7280273, -0.1503906, 0.7324219, -1.503281, -4.472969, 0.6267188,80.81176,5,4,30
45324,-2.039821,-1.970276,995.8558,-1,0.824707, -0.1333008, 0.6542969, -0.5189062, -2.160469, 0.2985938,80.81176,5,4,30
45492,-2.403623,-2.767426,995.8845,-1,0.7607422, -0.1293945, 0.6923828, -0.2845312, -5.519844, 0.8610937,80.81176,5,4,30
45557,-3.131392,-3.859161,995.924,-1,0.7705078, -0.1254883, 0.6787109, 0.3404688, 0.4176564, -0.07640624,80.81176,5,4,30
45623,-3.243995,-3.356598,995.9056,-1,0.7705078, -0.1264648, 0.6704102, 0.5279688, -0.5354686, -0.1389062,80.81176,5,4,30
45689,-3.153003,-3.062012,995.8951,-1,0.7709961, -0.1264648, 0.6982422, 0.01234376, 0.7926564, 0.07984376,80.81176,5,4,30
45755,-3.653376,-4.153748,995.9345,-1,0.765625, -0.1293945, 0.6782227, 0.2935938, -0.9729686, 0.1579688,80.81176,5,4,30
45822,-3.357694,-3.062012,995.8951,-1,0.7709961, -0.1274414, 0.6875, 0.1998438, 0.4645314, 0.06421876,80.81176,5,4,30
45888,-2.516692,-1.67569,995.8452,-1,0.7631836, -0.1313477, 0.6782227, 0.3248438, 0.1832814, -0.07640624,80.81176,5,4,30
45958,-2.386459,-2.256226,995.8661,10.38853,0.7739258, -0.1313477, 0.6845703, 0.1529688, -0.6448436, 0.1892188,80.81176,5,4,30
46026,-2.832542,-3.278625,995.9028,-1,0.7788086, -0.1318359, 0.6845703, 0.1529688, -0.8323436, 0.2360938,80.81176,5,4,30
46097,-3.055584,-3.278625,995.9028,-1,0.7666016, -0.1235352, 0.6865234, 0.1842188, -0.08234358, 0.00171876,80.81176,5,4,30
46274,-1.130941,0.7937012,995.7558,10.37934,0.7631836, -0.128418, 0.6845703, -0.01890624, -0.7385936, 0.1735938,80.81176,5,4,30
46346,-1.260356,-1.389771,995.8346,-1,0.7685547, -0.1318359, 0.6801758, 0.2154688, 0.1051564, 0.06421876,80.81176,5,4,30
46418,-2.013891,-2.767426,995.8845,-1,0.7900391, -0.128418, 0.6777344, 0.1373438, -1.222969, 0.1579688,80.81176,5,4,30
46497,-2.936526,-3.859161,995.924,-1,0.7680664, -0.1303711, 0.6894531, 0.1842188, 0.4020314, 0.1110938,80.81176,5,4,30
46570,-3.943696,-4.950867,995.9634,-1,0.7729492, -0.1303711, 0.6855469, 0.1685938, -0.3792186, 0.1267188,80.81176,5,4,30
46645,-4.048722,-4.153748,995.9345,-1,0.7670898, -0.1254883, 0.6674805, 0.2310938, -0.6135936, 0.1267188,80.81176,5,4,30
46721,-2.862206,-1.67569,995.8452,10.37934,0.7661133, -0.1289063, 0.6674805, 0.4654688, -0.4729686, -0.1389062,80.81176,5,4,30
46798,-3.360684,-3.859161,995.924,10.37475,0.7749023, -0.128418, 0.6850586, 0.02796876, -1.316719, 0.2204688,80.81176,5,4,30
46877,-3.466948,-3.573212,995.9135,-1,0.7700195, -0.1303711, 0.6791992, 0.02796876, -0.1760936, 0.1423438,80.81176,5,4,30
46955,-4.065948,-4.664948,995.9529,10.37475,0.7675781, -0.1293945, 0.6787109, 0.2779688, 0.3239064, -0.04515624,80.81176,5,4,30
47144,-2.580566,-1.095184,995.824,10.37934,0.7807617, -0.1303711, 0.6875, -0.01890624, -0.6760936, 0.1892188,80.81176,5,4,30
47219,-1.837875,-1.095184,995.824,-1,0.7719727, -0.1269531, 0.6835938, 0.09046877, -0.09796858, 0.1892188,80.81176,5,4,30
47297,-2.012383,-2.18689,995.8633,-1,0.7631836, -0.1274414, 0.6855469, 0.2310938, 0.1051564, 0.1110938,80.81176,5,4,30
47378,-2.792797,-3.573212,995.9135,10.37934,0.7636719, -0.1279297, 0.6977539, 0.07484376, -1.832344, 0.3298438,80.81176,5,4,30
47456,-3.183004,-3.573212,995.9135,-1,0.7250977, -0.1259766, 0.6347656, -0.3470312, -0.5042186, 0.2517188,80.81176,5,4,30
47536,-3.230815,-3.278625,995.9028,-1,0.7631836, -0.1381836, 0.7133789, -0.5189062, -0.8010936, 0.9548437,80.81176,5,4,30
47617,-3.25472,-3.278625,995.9028,10.37016,0.815918, -0.1660156, 0.5991211, 0.3092188, 3.886406, -0.6545312,80.81176,5,4,30
47699,-2.174952,-1.095184,995.824,-1,0.7353516, -0.1308594, 0.7451172, -0.9251562, -2.566719, 0.5329688,80.81176,5,4,30
47782,-3.671216,-5.16748,995.9712,-1,0.7514648, -0.1240234, 0.6708984, 0.3873438, -0.7542186, 0.06421876,80.81176,5,4,30
47866,-1.832999,0.005218506,995.7844,10.37016,0.7641602, -0.1293945, 0.6875, 0.1685938, -1.082344, 0.09546876,80.81176,5,4,30
48106,-2.408519,-2.984039,995.8923,10.37016,0.7651367, -0.1269531, 0.6723633, 0.2935938, 0.4801564, -0.09203124,80.81176,5,4,30
48171,-2.843572,-3.278625,995.9028,10.37016,0.7709961, -0.1293945, 0.6777344, 0.1529688, -0.9729686, 0.1579688,80.81176,5,4,30
48234,-2.913806,-2.984039,995.8923,-1,0.7719727, -0.1308594, 0.6831055, 0.1685938, 0.4176564, 0.06421876,80.81176,5,4,30
48299,-3.096216,-3.278625,995.9028,10.36098,0.7636719, -0.1274414, 0.6772461, 0.2779688, -0.1604686, -0.04515624,80.81176,5,4,30
48364,-3.040128,-2.984039,995.8923,10.37016,0.7695313, -0.1303711, 0.6918945, 0.05921876, -0.1917186, 0.09546876,80.81176,5,4,30
48430,-2.067656,-1.095184,995.824,10.37016,0.7641602, -0.1274414, 0.6791992, 0.1060938, -0.3323436, 0.1735938,80.81176,5,4,30
48494,-3.760543,-5.45343,995.9816,-1,0.7709961, -0.1220703, 0.6821289, 0.1217188, -0.03546858, 0.1735938,80.81176,5,4,30
48563,-2.427864,-1.095184,995.824,10.36098,0.8110352, -0.1411133, 0.6679688, 0.1998438, -1.644844, 0.2673438,80.81176,5,4,30
48630,-2.307377,-2.18689,995.8633,-1,0.7504883, -0.137207, 0.6953125, -0.8470312, -1.035469, 0.5173438,80.81176,5,4,30
48700,-2.793001,-3.278625,995.9028,10.37016,0.7797852, -0.1298828, 0.7241211, -0.4407812, -0.5042186, 0.8767187,80.81176,5,4,30
48877,-2.342652,-1.892303,995.853,-1,0.7724609, -0.1264648, 0.6669922, 0.2467188, -2.394844, 0.2673438,80.81176,5,4,30
48948,-2.264771,-2.18689,995.8633,10.36098,0.8022461, -0.137207, 0.6420898, -0.2064062, -6.176094, 0.7360938,80.81176,5,4,30
49016,-3.313233,-4.361694,995.9422,-1,0.7700195, -0.1362305, 0.671875, 0.1529688, -1.301094, 0.01734376,80.81176,5,4,30
49087,-3.148636,-2.984039,995.8923,-1,0.7573242, -0.1352539, 0.6884766, 0.09046877, 1.527031, -0.01390624,80.81176,5,4,30
49157,-2.923378,-2.69812,995.882,-1,0.7709961, -0.1308594, 0.6616211, 0.1217188, 1.152031, -0.06078124,80.81176,5,4,30
49230,-3.101002,-3.278625,995.9028,-1,0.7807617, -0.1289063, 0.6762695, 0.3092188, -1.504219, 0.06421876,80.81176,5,4,30
49303,-3.042521,-2.984039,995.8923,10.36557,0.7758789, -0.1264648, 0.6870117, 0.1685938, -2.082344, 0.1892188,80.81176,5,4,30
49376,-4.507909,-5.973297,996.0003,-1,0.7714844, -0.1401367, 0.671875, 0.09046877, 0.3082814, 0.03296876,80.81176,5,4,30
49451,-3.603014,-2.69812,995.882,10.37016,0.7714844, -0.1333008, 0.6796875, 0.1998438, -0.3792186, 0.09546876,80.81176,5,4,30
49527,-2.604699,-1.606384,995.8426,10.36557,0.7749023, -0.1328125, 0.6679688, 0.2779688, 0.5895314, -0.04515624,80.81176,5,4,30
49711,-2.65141,-2.69812,995.882,10.36098,0.7861328, -0.1279297, 0.6586914, 0.3873438, -0.8948436, -0.02953124,80.81176,5,4,30
49787,-1.981604,-1.311798,995.8318,-1,0.7631836, -0.1342773, 0.6894531, 0.1998438, -1.644844, 0.2048438,80.81176,5,4,30
49863,-2.482821,-2.984039,995.8923,10.36557,0.7646484, -0.1318359, 0.6757813, 0.2935938, 1.573906, -0.1545312,80.81176,5,4,30
49939,-2.044603,-1.606384,995.8426,-1,0.7709961, -0.1274414, 0.6831055, 0.1998438, 0.1520314, 0.1267188,80.81176,5,4,30
50022,-2.514321,-2.984039,995.8923,-1,0.7724609, -0.1318359, 0.6806641, 0.3092188, 0.3395314, 0.03296876,80.81176,5,4,30
50102,-2.74918,-2.984039,995.8923,-1,0.7841797, -0.1347656, 0.6835938, 0.1529688, -0.9417186, 0.1892188,80.81176,5,4,30
50183,-3.668078,-4.586975,995.9501,10.37016,0.7709961, -0.1337891, 0.6782227, -0.01890624, -2.566719, 0.2360938,80.81176,5,4,30
50263,-2.091363,-0.5146484,995.8031,10.36098,0.7597656, -0.1342773, 0.6875, -0.01890624, 0.6989064, 0.1110938,80.81176,5,4,30
50341,-1.445965,-0.8005676,995.8134,-1,0.7836914, -0.1259766, 0.6621094, 0.04359376, -2.082344, 0.4860938,80.81176,5,4,30
50420,-0.1398528,1.16626,995.7425,-1,0.7802734, -0.1313477, 0.6708984, 0.3560938, 1.652031, -0.01390624,80.81176,5,4,30
50613,-1.124385,-2.108917,995.8608,10.36098,0.7885742, -0.1328125, 0.6899414, -0.05015624, -1.144844, 0.1423438,80.81176,5,4,30
50694,-1.911252,-2.69812,995.882,-1,0.7719727, -0.1235352, 0.6743164, 0.2467188, 1.448906, -0.1857812,80.81176,5,4,30
50773,-2.010085,-2.108917,995.8608,-1,0.7714844, -0.1362305, 0.6782227, 0.2779688, 0.1051564, 0.04859376,80.81176,5,4,30
50903,-2.059501,-2.108917,995.8608,10.36098,0.7617188, -0.1323242, 0.6831055, 0.2154688, 0.5582814, 0.06421876,80.81176,5,4,30
50965,-2.482784,-2.906067,995.8896,-1,0.7758789, -0.1401367, 0.6645508, 0.09046877, -1.301094, 0.2204688,80.81176,5,4,30
51030,-3.387587,-4.292389,995.9396,-1,0.7729492, -0.1318359, 0.6630859, 0.2310938, 0.3551564, -0.04515624,80.81176,5,4,30
51096,-2.895545,-2.403503,995.8713,10.36098,0.7597656, -0.1347656, 0.6733398, 0.02796876, -2.144844, 0.2204688,80.81176,5,4,30
51158,-2.354938,-1.814331,995.8502,-1,0.7910156, -0.1201172, 0.6733398, 0.2154688, -1.988594, 0.5485938,80.81176,5,4,30
51225,-1.395807,-0.436676,995.8002,-1,0.7768555, -0.1328125, 0.6708984, -0.06578124, 2.073906, -0.07640624,80.81176,5,4,30
51290,-1.752362,-2.108917,995.8608,10.36098,0.7797852, -0.1342773, 0.6816406, 0.1685938, -1.254219, 0.2048438,80.81176,5,4,30
51466,-1.640387,-1.528412,995.8396,10.36098,0.7646484, -0.1323242, 0.6674805, 0.2154688, -0.6760936, -0.04515624,80.81176,5,4,30
51533,-2.67612,-3.711853,995.9185,-1,0.777832, -0.1337891, 0.6835938, 0.2310938, 2.292656, -0.1076562,80.81176,5,4,30
51603,-3.484254,-4.292389,995.9396,10.3518,0.7666016, -0.1264648, 0.6875, 0.1998438, 0.04265642, 0.04859376,80.81176,5,4,30
51672,-4.182908,-4.881561,995.9609,-1,0.7958984, -0.1264648, 0.6723633, 0.2154688, -1.426094, 0.09546876,80.81176,5,4,30
51741,-4.532235,-4.881561,995.9609,10.34261,0.7734375, -0.1328125, 0.6879883, 0.1060938, -0.5979686, 0.09546876,80.81176,5,4,30
51810,-3.320576,-2.108917,995.8608,10.35639,0.7646484, -0.128418, 0.6992188, 0.3873438, 1.886406, -0.2639062,80.81176,5,4,30
51880,-3.555201,-3.789825,995.9214,-1,0.7709961, -0.1269531, 0.6835938, 0.1685938, -2.332344, 0.1735938,80.81176,5,4,30
51953,-2.979352,-2.403503,995.8713,10.35639,0.8115234, -0.125, 0.6606445, 0.3873438, -6.176094, 0.06421876,80.81176,5,4,30
52025,-1.599707,-0.2200623,995.7924,10.3518,0.7597656, -0.1337891, 0.6845703, 0.1998438, 0.5426564, 0.01734376,80.81176,5,4,30
52101,-2.946048,-4.292389,995.9396,10.3518,0.7729492, -0.1308594, 0.6743164, 0.2467188, -0.2229686, 0.07984376,80.81176,5,4,30
52282,-3.07335,-3.200653,995.9002,-1,0.7734375, -0.1308594, 0.6772461, 0.1685938, -0.2385936, 0.07984376,80.81176,5,4,30
52354,-3.535561,-3.997772,995.929,10.35639,0.7714844, -0.1333008, 0.6762695, 0.1842188, -0.2385936, 0.04859376,80.81176,5,4,30
52429,-3.073506,-2.61145,995.879,10.36098,0.7729492, -0.1323242, 0.6767578, 0.1529688, -0.2698436, 0.06421876,80.81176,5,4,30
52508,-3.137079,-3.200653,995.9002,-1,0.7724609, -0.1318359, 0.6767578, 0.1998438, -0.2385936, 0.06421876,80.81176,5,4,30
52584,-3.424466,-3.711853,995.9185,-1,0.7724609, -0.1303711, 0.675293, 0.2310938, -0.3479686, 0.04859376,80.81176,5,4,30
52659,-3.31256,-3.200653,995.9002,-1,0.7724609, -0.1303711, 0.6738281, 0.1373438, -0.3323436, 0.06421876,80.81176,5,4,30
52734,-3.148299,-2.984039,995.8923,-1,0.7724609, -0.1323242, 0.6748047, 0.2154688, -0.3010936, 0.07984376,80.81176,5,4,30
52815,-3.174476,-3.200653,995.9002,10.35639,0.7724609, -0.1308594, 0.6777344, 0.2310938, -0.3010936, 0.09546876,80.81176,5,4,30
52893,-4.426594,-5.678711,995.9895,-1,0.7729492, -0.1318359, 0.6762695, 0.2467188, -0.2854686, 0.09546876,80.81176,5,4,30
52969,-3.562357,-2.69812,995.882,-1,0.7724609, -0.1303711, 0.6762695, 0.1685938, -0.2385936, 0.1110938,80.81176,5,4,30
53156,-2.584371,-1.606384,995.8426,-1,0.7719727, -0.1303711, 0.6772461, 0.1998438, -0.2385936, 0.06421876,80.81176,5,4,30
53237,-2.641245,-2.69812,995.882,10.36098,0.7714844, -0.1308594, 0.675293, 0.1998438, -0.2698436, 0.06421876,80.81176,5,4,30
53318,-3.319509,-3.997772,995.929,-1,0.7739258, -0.1347656, 0.6796875, 0.1998438, -0.2854686, 0.09546876,80.81176,5,4,30
53399,-3.407374,-3.495239,995.9106,10.36098,0.7724609, -0.1313477, 0.6791992, 0.2310938, -0.2698436, 0.1110938,80.81176,5,4,30
53481,-4.430402,-5.45343,995.9816,-1,0.7753906, -0.1293945, 0.6728516, 0.1998438, -0.3010936, 0.06421876,80.81176,5,4,30
53564,-4.110114,-3.789825,995.9214,-1,0.7729492, -0.1289063, 0.6772461, 0.1998438, -0.1760936, 0.01734376,80.81176,5,4,30
53706,-3.404117,-2.69812,995.882,10.36098,0.7719727, -0.1264648, 0.6748047, 0.1685938, -0.4260936, -0.01390624,80.81176,5,4,30
53771,-3.051118,-2.69812,995.882,10.36098,0.7709961, -0.1328125, 0.6777344, 0.2154688, -0.2073436, 0.07984376,80.81176,5,4,30
53835,-1.89119,-0.7312622,995.8108,-1,0.7753906, -0.1347656, 0.6743164, 0.1373438, -0.2698436, 0.1735938,80.81176,5,4,30
53899,-3.784951,-5.678711,995.9895,10.3518,0.7719727, -0.1293945, 0.6767578, 0.1373438, -0.2542186, 0.06421876,80.81176,5,4,30
54077,-4.333256,-4.881561,995.9609,10.36098,0.7705078, -0.1323242, 0.6787109, 0.1998438, -0.2385936, 0.06421876,80.81176,5,4,30
54142,-2.423952,-0.5146484,995.8031,10.36557,0.769043, -0.1337891, 0.6694336, 0.2623438, -0.2385936, 0.04859376,80.81176,5,4,30
54208,-2.812303,-3.200653,995.9002,-1,0.7700195, -0.1333008, 0.6777344, 0.1060938, -0.1604686, 0.06421876,80.81176,5,4,30
54275,-2.755211,-2.69812,995.882,-1,0.7724609, -0.1303711, 0.6748047, 0.1685938, -0.3479686, 0.06421876,80.81176,5,4,30
54345,-2.432064,-2.108917,995.8608,10.37016,0.7714844, -0.1328125, 0.6777344, 0.1373438, -0.3010936, 0.09546876,80.81176,5,4,30
54413,-2.565092,-2.69812,995.882,-1,0.7729492, -0.1313477, 0.6772461, 0.1529688, -0.2698436, 0.03296876,80.81176,5,4,30
54483,-2.882873,-3.200653,995.9002,-1,0.7719727, -0.1318359, 0.6762695, 0.1685938, -0.2229686, 0.04859376,80.81176,5,4,30
54554,-2.244628,-1.606384,995.8426,10.36557,0.7724609, -0.1303711, 0.6767578, 0.1998438, -0.2542186, 0.06421876,80.81176,5,4,30
54625,-2.324066,-2.403503,995.8713,10.36098,0.7724609, -0.1308594, 0.6772461, 0.2154688, -0.2698436, 0.09546876,80.81176,5,4,30
54696,-2.216492,-2.108917,995.8608,10.35639,0.7719727, -0.1318359, 0.6782227, 0.1998438, -0.2073436, 0.04859376,80.81176,5,4,30
54874,-1.872452,-1.528412,995.8396,10.36557,0.7734375, -0.1313477, 0.6748047, 0.1217188, -0.2229686, 0.01734376,80.81176,5,4,30
54946,-1.843391,-1.814331,995.8502,10.36557,0.7724609, -0.1308594, 0.6772461, 0.1998438, -0.3010936, 0.01734376,80.81176,5,4,30
55020,-3.06789,-4.292389,995.9396,10.37016,0.7739258, -0.1318359, 0.675293, 0.1998438, -0.2854686, 0.06421876,80.81176,5,4,30
55097,-3.428858,-3.789825,995.9214,10.36098,0.7709961, -0.1318359, 0.6767578, 0.1373438, -0.1917186, 0.06421876,80.81176,5,4,30
55170,-3.063489,-2.69812,995.882,-1,0.7705078, -0.1313477, 0.6762695, 0.1685938, -0.2542186, 0.06421876,80.81176,5,4,30
55245,-1.641776,-0.2200623,995.7924,-1,0.7714844, -0.1303711, 0.6748047, 0.1842188, -0.2385936, 0.04859376,80.81176,5,4,30
55320,-2.169948,-2.69812,995.882,10.36098,0.7719727, -0.1313477, 0.675293, 0.1529688, -0.2854686, 0.04859376,80.81176,5,4,30
55395,-1.303312,-0.436676,995.8002,-1,0.7724609, -0.1333008, 0.6777344, 0.2310938, -0.2229686, 0.06421876,80.81176,5,4,30
55470,-2.399276,-3.495239,995.9106,-1,0.7719727, -0.1323242, 0.6757813, 0.1685938, -0.2385936, 0.06421876,80.81176,5,4,30
55546,-2.106803,-1.814331,995.8502,-1,0.7714844, -0.1298828, 0.6777344, 0.1998438, -0.2229686, 0.04859376,80.81176,5,4,30
55732,-3.346889,-4.586975,995.9501,10.3518,0.7719727, -0.1328125, 0.6772461, 0.2467188, -0.2854686, 0.03296876,80.81176,5,4,30
55810,-2.727903,-2.108917,995.8608,-1,0.7719727, -0.1318359, 0.6787109, 0.1842188, -0.3010936, 0.07984376,80.81176,5,4,30
55889,-2.271117,-1.814331,995.8502,10.3518,0.7739258, -0.1303711, 0.6762695, 0.2310938, -0.3010936, 0.04859376,80.81176,5,4,30
55966,-3.827606,-5.384094,995.9791,-1,0.7719727, -0.128418, 0.6762695, 0.1998438, -0.3010936, 0.06421876,80.81176,5,4,30
56052,-3.366836,-2.906067,995.8896,-1,0.7724609, -0.1318359, 0.6777344, 0.1998438, -0.2542186, 0.04859376,80.81176,5,4,30
56133,-4.080879,-4.794922,995.9578,10.36098,0.7724609, -0.1323242, 0.6757813, 0.1685938, -0.2542186, 0.06421876,80.81176,5,4,30
56215,-4.437901,-4.794922,995.9578,10.3472,0.7724609, -0.1303711, 0.6757813, 0.1998438, -0.2698436, 0.06421876,80.81176,5,4,30
56301,-4.074877,-3.711853,995.9185,10.3518,0.7714844, -0.1298828, 0.6791992, 0.1373438, -0.2385936, 0.04859376,80.81176,5,4,30
56381,-2.801644,-1.528412,995.8396,10.34261,0.7719727, -0.1323242, 0.6777344, 0.2310938, -0.2385936, 0.1267188,80.81176,5,4,30
56511,-3.841603,-4.881561,995.9609,-1,0.7724609, -0.1328125, 0.6762695, 0.2310938, -0.2385936, 0.04859376,80.81176,5,4,30
56681,-3.919687,-3.997772,995.929,10.34261,0.7719727, -0.1323242, 0.6777344, 0.1998438, -0.2854686, 0.06421876,80.81176,5,4,30
56743,-3.56017,-3.200653,995.9002,-1,0.7729492, -0.1313477, 0.6757813, 0.1842188, -0.2385936, 0.04859376,80.81176,5,4,30
56804,-3.129145,-2.69812,995.882,-1,0.7729492, -0.1313477, 0.6757813, 0.1685938, -0.1917186, 0.1267188,80.81176,5,4,30
56867,-2.619031,-2.108917,995.8608,-1,0.7724609, -0.1308594, 0.6777344, 0.1529688, -0.2542186, 0.07984376,80.81176,5,4,30
56931,-1.129279,0.3604736,995.7714,10.34261,0.7719727, -0.1318359, 0.6787109, 0.1685938, -0.2854686, 0.07984376,80.81176,5,4,30
56997,-2.563525,-3.997772,995.929,10.36098,0.7719727, -0.1323242, 0.6777344, 0.1529688, -0.2698436, 0.1267188,80.81176,5,4,30
57061,-2.99473,-3.425934,995.9081,-1,0.7709961, -0.1298828, 0.6777344, 0.2310938, -0.2854686, 0.04859376,80.81176,5,4,30
57135,-3.244984,-3.495239,995.9106,-1,0.7724609, -0.1323242, 0.6748047, 0.1998438, -0.2542186, 0.06421876,80.81176,5,4,30
57201,-4.314539,-5.384094,995.9791,-1,0.7729492, -0.1318359, 0.6743164, 0.1373438, -0.2229686, 0.03296876,80.81176,5,4,30
57269,-3.50633,-2.69812,995.882,-1,0.7724609, -0.1308594, 0.6777344, 0.1998438, -0.2854686, 0.09546876,80.81176,5,4,30
57448,-2.409064,-1.311798,995.8318,-1,0.7714844, -0.1308594, 0.6748047, 0.1998438, -0.2854686, 0.09546876,80.81176,5,4,30
57517,-2.553592,-2.69812,995.882,-1,0.7724609, -0.1323242, 0.6762695, 0.1060938, -0.2073436, 0.03296876,80.81176,5,4,30
57588,-4.913286,-7.27298,996.0474,-1,0.7729492, -0.1313477, 0.6762695, 0.2154688, -0.2542186, 0.01734376,80.81176,5,4,30
57660,-3.658395,-2.403503,995.8713,-1,0.7709961, -0.1308594, 0.6757813, 0.1373438, -0.2698436, 0.07984376,80.81176,5,4,30
57732,-3.178257,-2.69812,995.882,-1,0.7719727, -0.1333008, 0.6762695, 0.1998438, -0.2698436, 0.04859376,80.81176,5,4,30
57807,-3.882616,-4.586975,995.9501,10.37016,0.7724609, -0.1318359, 0.6777344, 0.2310938, -0.2854686, 0.04859376,80.81176,5,4,30
57879,-4.382089,-4.881561,995.9609,-1,0.7719727, -0.1308594, 0.6767578, 0.1685938, -0.2385936, 0.04859376,80.81176,5,4,30
57956,-3.791371,-3.200653,995.9002,-1,0.7714844, -0.1318359, 0.6738281, 0.1529688, -0.3010936, 0.07984376,80.81176,5,4,30
58032,-3.348719,-2.906067,995.8896,-1,0.7724609, -0.1303711, 0.6772461, 0.2154688, -0.3010936, 0.06421876,80.81176,5,4,30
58108,-1.892697,-0.436676,995.8002,10.36098,0.7724609, -0.1313477, 0.6772461, 0.1529688, -0.2854686, 0.09546876,80.81176,5,4,30
58293,-2.000807,-2.108917,995.8608,-1,0.7729492, -0.1318359, 0.6787109, 0.1998438, -0.3010936, 0.04859376,80.81176,5,4,30
58368,-2.054862,-2.108917,995.8608,-1,0.7714844, -0.1303711, 0.6767578, 0.2154688, -0.2542186, 0.09546876,80.81176,5,4,30
58448,-3.173625,-4.292389,995.9396,10.36098,0.7739258, -0.1293945, 0.6767578, 0.1529688, -0.2542186, 0.09546876,80.81176,5,4,30
58524,-4.027594,-4.881561,995.9609,-1,0.7739258, -0.1323242, 0.6767578, 0.1998438, -0.2385936, 0.07984376,80.81176,5,4,30
58601,-2.920962,-1.814331,995.8502,-1,0.7719727, -0.1298828, 0.675293, 0.1998438, -0.2229686, 0.06421876,80.81176,5,4,30
58680,-1.969072,-1.017181,995.8214,-1,0.7729492, -0.1323242, 0.6777344, 0.1217188, -0.2698436, 0.09546876,80.81176,5,4,30
58759,-1.930688,-1.892303,995.853,-1,0.7714844, -0.1323242, 0.6772461, 0.1998438, -0.2542186, 0.09546876,80.81176,5,4,30
58838,-3.406125,-4.881561,995.9609,10.35639,0.7719727, -0.1333008, 0.6733398, 0.1842188, -0.2542186, 0.06421876,80.81176,5,4,30
58921,-3.632643,-3.859161,995.924,-1,0.7724609, -0.1323242, 0.6782227, 0.1998438, -0.2542186, 0.09546876,80.81176,5,4,30
59002,-3.711234,-3.789825,995.9214,-1,0.7724609, -0.1298828, 0.6772461, 0.1373438, -0.2385936, 0.04859376,80.81176,5,4,30
59194,-3.204677,-2.69812,995.882,-1,0.7724609, -0.1313477, 0.6777344, 0.1842188, -0.2698436, 0.09546876,80.81176,5,4,30
59276,-3.349958,-3.495239,995.9106,-1,0.7719727, -0.1293945, 0.6748047, 0.1842188, -0.2385936, 0.1267188,80.81176,5,4,30
59411,-3.166999,-2.984039,995.8923,10.37016,0.7724609, -0.1308594, 0.6757813, 0.1998438, -0.2385936, 0.04859376,80.81176,5,4,30
59474,-3.075519,-2.984039,995.8923,-1,0.7705078, -0.1303711, 0.6762695, 0.2154688, -0.2698436, 0.06421876,80.81176,5,4,30
59538,-4.264475,-5.45343,995.9816,10.36098,0.7719727, -0.1303711, 0.6782227, 0.1842188, -0.3010936, 0.04859376,80.81176,5,4,30
59603,-3.078389,-1.892303,995.853,10.36557,0.7709961, -0.1303711, 0.6743164, 0.1842188, -0.2229686, 0.1110938,80.81176,5,4,30
59669,-3.178507,-3.278625,995.9028,10.37016,0.7724609, -0.1308594, 0.6738281, 0.2310938, -0.2854686, 0.1110938,80.81176,5,4,30
59735,-3.735448,-4.292389,995.9396,-1,0.7734375, -0.1313477, 0.6777344, 0.1842188, -0.2854686, 0.1110938,80.81176,5,4,30
59802,-2.922183,-2.108917,995.8608,10.36557,0.7719727, -0.1313477, 0.6777344, 0.1529688, -0.2698436, 0.04859376,80.81176,5,4,30
59869,-3.356004,-3.789825,995.9214,-1,0.7714844, -0.1298828, 0.6748047, 0.2154688, -0.2385936, 0.06421876,80.81176,5,4,30
60046,-2.879754,-2.403503,995.8713,10.36557,0.7729492, -0.1308594, 0.6777344, 0.1998438, -0.2229686, 0.06421876,80.81176,5,4,30
60113,-2.533322,-2.18689,995.8633,-1,0.7724609, -0.1318359, 0.6777344, 0.1529688, -0.2385936, 0.06421876,80.81176,5,4,30
60178,-2.905973,-3.278625,995.9028,-1,0.7714844, -0.1313477, 0.6757813, 0.1842188, -0.2698436, 0.04859376,80.81176,5,4,30
60248,-3.092299,-3.278625,995.9028,10.37475,0.7719727, -0.1308594, 0.6772461, 0.1842188, -0.2385936, 0.07984376,80.81176,5,4,30
60315,-3.726997,-4.361694,995.9422,-1,0.7719727, -0.1318359, 0.6762695, 0.2310938, -0.1917186, 0.1110938,80.81176,5,4,30
60383,-3.104252,-2.481506,995.8741,-1,0.7705078, -0.1318359, 0.6772461, 0.1842188, -0.2698436, 0.06421876,80.81176,5,4,30
60453,-3.191439,-3.278625,995.9028,-1,0.7709961, -0.1308594, 0.6748047, 0.1685938, -0.2698436, 0.06421876,80.81176,5,4,30
60523,-2.689164,-2.18689,995.8633,10.37016,0.7709961, -0.1318359, 0.6777344, 0.1842188, -0.3323436, 0.04859376,80.81176,5,4,30
60595,-3.38247,-4.075775,995.9317,-1,0.7705078, -0.1289063, 0.6772461, 0.1842188, -0.1917186, 0.07984376,80.81176,5,4,30
60666,-2.091519,-0.8005676,995.8134,-1,0.7729492, -0.1323242, 0.6757813, 0.1685938, -0.2854686, 0.04859376,80.81176,5,4,30
60859,-2.97534,-3.859161,995.924,10.37016,0.7724609, -0.1303711, 0.6757813, 0.1998438, -0.2229686, 0.09546876,80.81176,5,4,30
60934,-2.728423,-2.481506,995.8741,10.37016,0.7714844, -0.1318359, 0.6772461, 0.1998438, -0.2698436, 0.09546876,80.81176,5,4,30
61011,-3.696685,-4.664948,995.9529,10.37475,0.7724609, -0.1298828, 0.6767578, 0.1842188, -0.2385936, 0.06421876,80.81176,5,4,30
61084,-3.232055,-2.767426,995.8845,-1,0.7724609, -0.1318359, 0.675293, 0.1529688, -0.2229686, 0.09546876,80.81176,5,4,30
61161,-3.796875,-4.361694,995.9422,-1,0.7724609, -0.1318359, 0.6791992, 0.1373438, -0.2698436, 0.04859376,80.81176,5,4,30
61237,-2.991882,-2.18689,995.8633,-1,0.7714844, -0.1308594, 0.6782227, 0.2467188, -0.2698436, 0.04859376,80.81176,5,4,30
61313,-3.282547,-3.573212,995.9135,-1,0.7714844, -0.1303711, 0.675293, 0.1998438, -0.2229686, 0.06421876,80.81176,5,4,30
61391,-3.570854,-3.859161,995.924,10.37934,0.7729492, -0.1308594, 0.6757813, 0.2154688, -0.2542186, 0.04859376,80.81176,5,4,30
61470,-3.42474,-3.278625,995.9028,-1,0.7729492, -0.1308594, 0.6777344, 0.1685938, -0.2385936, 0.06421876,80.81176,5,4,30
61550,-3.351683,-3.278625,995.9028,-1,0.7739258, -0.1318359, 0.6767578, 0.1842188, -0.2542186, 0.04859376,80.81176,5,4,30
61737,-3.462447,-3.573212,995.9135,-1,0.7709961, -0.1298828, 0.6777344, 0.1685938, -0.2385936, 0.06421876,80.81176,5,4,30
61818,-2.824668,-2.18689,995.8633,-1,0.7724609, -0.1293945, 0.6748047, 0.1842188, -0.2229686, 0.04859376,80.81176,5,4,30
61900,-2.653087,-2.481506,995.8741,10.37475,0.7724609, -0.1323242, 0.6772461, 0.1998438, -0.2229686, 0.09546876,80.81176,5,4,30
61982,-3.659018,-4.664948,995.9529,-1,0.7709961, -0.1298828, 0.6767578, 0.2310938, -0.2854686, 0.03296876,80.81176,5,4,30
62067,-3.759089,-3.859161,995.924,10.37934,0.7724609, -0.1313477, 0.6772461, 0.1685938, -0.3323436, 0.1267188,80.81176,5,4,30
62200,-3.263258,-2.767426,995.8845,10.37934,0.7729492, -0.1323242, 0.6757813, 0.1998438, -0.2698436, 0.03296876,80.81176,5,4,30
62265,-3.418235,-3.573212,995.9135,10.37475,0.7724609, -0.1303711, 0.6757813, 0.1998438, -0.3010936, 0.09546876,80.81176,5,4,30
62329,-2.404003,-1.389771,995.8346,-1,0.7719727, -0.1298828, 0.6757813, 0.1842188, -0.2698436, 0.06421876,80.81176,5,4,30
62393,-2.585714,-2.767426,995.8845,-1,0.7714844, -0.1318359, 0.6757813, 0.2154688, -0.2698436, 0.1110938,80.81176,5,4,30
62458,-3.222438,-3.859161,995.924,-1,0.7729492, -0.1298828, 0.675293, 0.1998438, -0.2698436, 0.1579688,80.81176,5,4,30
62633,-3.5408,-3.859161,995.924,-1,0.7724609, -0.1293945, 0.6762695, 0.2310938, -0.2385936, 0.06421876,80.81176,5,4,30
62699,-4.393142,-5.245483,995.9741,-1,0.7714844, -0.1318359, 0.6767578, 0.2310938, -0.2698436, 0.06421876,80.81176,5,4,30
62764,-1.79972,0.7937012,995.7558,-1,0.7729492, -0.1298828, 0.6777344, 0.1529688, -0.2229686, 0.06421876,80.81176,5,4,30
62830,-2.829441,-3.859161,995.924,-1,0.7719727, -0.1313477, 0.6767578, 0.1998438, -0.2542186, 0.07984376,80.81176,5,4,30
62895,-3.201326,-3.573212,995.9135,10.38393,0.7719727, -0.1313477, 0.675293, 0.2310938, -0.2542186, 0.1267188,80.81176,5,4,30
62962,-4.076097,-4.950867,995.9634,-1,0.7729492, -0.1328125, 0.6782227, 0.1842188, -0.3010936, 0.1110938,80.81176,5,4,30
63028,-2.875893,-1.67569,995.8452,-1,0.7724609, -0.1318359, 0.6748047, 0.1842188, -0.2542186, 0.09546876,80.81176,5,4,30
63095,-3.367527,-3.859161,995.924,-1,0.7724609, -0.1313477, 0.6772461, 0.1998438, -0.2698436, 0.09546876,80.81176,5,4,30
63164,-3.760637,-4.153748,995.9345,10.39312,0.7709961, -0.1303711, 0.6772461, 0.1685938, -0.2385936, 0.07984376,80.81176,5,4,30
63235,-3.809899,-3.859161,995.924,10.37934,0.7719727, -0.1313477, 0.675293, 0.2310938, -0.2542186, 0.07984376,80.81176,5,4,30
63414,-3.288662,-2.767426,995.8845,-1,0.7719727, -0.1293945, 0.6762695, 0.2154688, -0.3167186, 0.07984376,80.81176,5,4,30
63485,-3.721205,-4.153748,995.9345,-1,0.7714844, -0.1298828, 0.6767578, 0.1842188, -0.2385936, 0.04859376,80.81176,5,4,30
63557,-4.483344,-5.245483,995.9741,-1,0.7719727, -0.1289063, 0.675293, 0.1998438, -0.2698436, 0.09546876,80.81176,5,4,30
63632,-5.410266,-6.337189,996.0134,-1,0.7724609, -0.1333008, 0.6772461, 0.1998438, -0.2229686, 0.07984376,80.81176,5,4,30
63704,-4.383432,-3.356598,995.9056,-1,0.7724609, -0.1308594, 0.675293, 0.1373438, -0.2698436, 0.07984376,80.81176,5,4,30
63775,-3.176854,-1.970276,995.8558,-1,0.7724609, -0.1328125, 0.675293, 0.1685938, -0.2385936, 0.04859376,80.81176,5,4,30
63851,-3.414034,-3.651215,995.9163,10.39312,0.7729492, -0.1313477, 0.6772461, 0.1060938, -0.2854686, 0.04859376,80.81176,5,4,30
63927,-3.931184,-4.448334,995.9451,10.38393,0.7724609, -0.1298828, 0.675293, 0.1998438, -0.2698436, 0.07984376,80.81176,5,4,30
64005,-3.643891,-3.356598,995.9056,-1,0.7734375, -0.1328125, 0.6762695, 0.2154688, -0.3167186, 0.09546876,80.81176,5,4,30
64081,-2.118256,-0.5926208,995.8058,-1,0.7714844, -0.1328125, 0.6767578, 0.1685938, -0.2698436, 0.04859376,80.81176,5,4,30
64269,-2.884735,-3.651215,995.9163,-1,0.7734375, -0.1323242, 0.6738281, 0.1842188, -0.3010936, 0.07984376,80.81176,5,4,30
64349,-3.666534,-4.448334,995.9451,10.38853,0.7714844, -0.1289063, 0.675293, 0.1998438, -0.3010936, 0.04859376,80.81176,5,4,30
64435,-3.511566,-3.356598,995.9056,10.38393,0.7729492, -0.1313477, 0.6772461, 0.1998438, -0.2229686, 0.06421876,80.81176,5,4,30
64513,-3.97995,-4.448334,995.9451,-1,0.7709961, -0.1298828, 0.6772461, 0.2154688, -0.2229686, 0.07984376,80.81176,5,4,30
64592,-3.118088,-2.256226,995.8661,10.38853,0.7729492, -0.1318359, 0.6762695, 0.1529688, -0.2698436, 0.07984376,80.81176,5,4,30
64674,-2.396889,-1.67569,995.8452,-1,0.7729492, -0.1303711, 0.6782227, 0.1998438, -0.2542186, 0.04859376,80.81176,5,4,30
64757,-3.422611,-4.448334,995.9451,-1,0.7709961, -0.1293945, 0.6782227, 0.1998438, -0.2854686, 0.09546876,80.81176,5,4,30
64840,-3.242311,-3.062012,995.8951,-1,0.7709961, -0.1323242, 0.6767578, 0.2310938, -0.3010936, 0.04859376,80.81176,5,4,30
64969,-3.845323,-4.448334,995.9451,-1,0.7724609, -0.1303711, 0.6743164, 0.2310938, -0.2073436, 0.04859376,80.81176,5,4,30
65030,-3.202401,-2.559479,995.877,10.39771,0.7719727, -0.1337891, 0.6767578, 0.1998438, -0.2542186, 0.07984376,80.81176,5,4,30
65199,-3.97266,-4.74292,995.9559,-1,0.7734375, -0.1313477, 0.6762695, 0.2154688, -0.3167186, 0.06421876,80.81176,5,4,30
65263,-4.210497,-4.448334,995.9451,10.39312,0.7729492, -0.1308594, 0.675293, 0.1685938, -0.2229686, 0.07984376,80.81176,5,4,30
65327,-3.233361,-2.256226,995.8661,-1,0.7729492, -0.1308594, 0.6777344, 0.1842188, -0.2385936, 0.07984376,80.81176,5,4,30
65392,-4.131115,-5.02887,995.9662,-1,0.7729492, -0.1313477, 0.6777344, 0.1998438, -0.2854686, 0.09546876,80.81176,5,4,30
65457,-4.289724,-4.448334,995.9451,-1,0.7714844, -0.1313477, 0.6772461, 0.1842188, -0.2229686, 0.09546876,80.81176,5,4,30
65520,-3.823161,-3.356598,995.9056,-1,0.7709961, -0.1303711, 0.6782227, 0.1529688, -0.2073436, 0.06421876,80.81176,5,4,30
65590,-3.884481,-3.945801,995.9269,10.39312,0.7724609, -0.1318359, 0.6757813, 0.2154688, -0.2073436, 0.09546876,80.81176,5,4,30
65656,-2.130244,-0.3760071,995.7981,-1,0.7734375, -0.1318359, 0.6743164, 0.2154688, -0.2542186, 0.09546876,80.81176,5,4,30
65724,-3.579557,-5.02887,995.9662,-1,0.7709961, -0.1303711, 0.6762695, 0.1842188, -0.3010936, 0.09546876,80.81176,5,4,30
65794,-3.468077,-3.356598,995.9056,-1,0.7724609, -0.1308594, 0.6757813, 0.09046877, -0.2698436, 0.06421876,80.81176,5,4,30
65975,-2.862152,-2.256226,995.8661,10.39771,0.7714844, -0.1323242, 0.6762695, 0.1998438, -0.2542186, 0.06421876,80.81176,5,4,30
66046,-2.559189,-2.256226,995.8661,10.38853,0.7729492, -0.1313477, 0.6767578, 0.1842188, -0.2854686, 0.04859376,80.81176,5,4,30
66119,-3.252495,-3.945801,995.9269,10.39771,0.7714844, -0.1318359, 0.6767578, 0.09046877, -0.2229686, 0.09546876,80.81176,5,4,30
66191,-3.304546,-3.356598,995.9056,-1,0.7734375, -0.1298828, 0.6767578, 0.1998438, -0.2385936, 0.1267188,80.81176,5,4,30
66262,-3.87644,-4.448334,995.9451,-1,0.7729492, -0.1308594, 0.6757813, 0.2154688, -0.2385936, 0.01734376,80.81176,5,4,30
66337,-3.616519,-3.356598,995.9056,-1,0.7724609, -0.1298828, 0.6777344, 0.1529688, -0.2542186, 0.07984376,80.81176,5,4,30
66409,-2.685091,-1.753662,995.848,-1,0.7729492, -0.1318359, 0.6777344, 0.1685938, -0.3010936, 0.03296876,80.81176,5,4,30
66484,-2.765244,-2.845398,995.8873,10.40689,0.7724609, -0.1333008, 0.6767578, 0.1842188, -0.2542186, 0.06421876,80.81176,5,4,30
66560,-3.897057,-5.02887,995.9662,10.4023,0.7724609, -0.1303711, 0.6782227, 0.2310938, -0.2073436, 0.09546876,80.81176,5,4,30
66637,-2.535107,-1.173157,995.8268,-1,0.7719727, -0.1313477, 0.6777344, 0.2467188, -0.2542186, 0.1110938,80.81176,5,4,30
66822,-2.690252,-2.845398,995.8873,-1,0.7719727, -0.1298828, 0.6777344, 0.1529688, -0.2542186, 0.07984376,80.81176,5,4,30
66898,-1.680438,-0.6706238,995.8086,-1,0.7724609, -0.1303711, 0.6772461, 0.1685938, -0.2385936, 0.04859376,80.81176,5,4,30
66975,-3.354654,-5.02887,995.9662,-1,0.7724609, -0.1293945, 0.6762695, 0.1373438, -0.2698436, 0.06421876,80.81176,5,4,30
67053,-3.100026,-2.845398,995.8873,10.40689,0.7709961, -0.1318359, 0.6748047, 0.2154688, -0.2698436, 0.06421876,80.81176,5,4,30
67129,-3.120005,-3.139984,995.8979,-1,0.7719727, -0.1313477, 0.6772461, 0.1685938, -0.3010936, 0.06421876,80.81176,5,4,30
67206,-3.129995,-3.139984,995.8979,-1,0.7719727, -0.1303711, 0.6762695, 0.1842188, -0.2385936, 0.06421876,80.81176,5,4,30
67287,-1.900309,-0.6706238,995.8086,10.39771,0.7734375, -0.1303711, 0.6762695, 0.1685938, -0.2229686, 0.06421876,80.81176,5,4,30
67368,-2.372854,-2.845398,995.8873,-1,0.7709961, -0.1323242, 0.6757813, 0.1842188, -0.2542186, 0.06421876,80.81176,5,4,30
67450,-2.756419,-3.139984,995.8979,-1,0.7724609, -0.1323242, 0.6767578, 0.1842188, -0.2854686, 0.04859376,80.81176,5,4,30
67532,-2.800908,-2.845398,995.8873,-1,0.7729492, -0.1308594, 0.6772461, 0.1842188, -0.3167186, 0.01734376,80.81176,5,4,30
67724,-3.373354,-3.945801,995.9269,10.4023,0.7709961, -0.1318359, 0.6762695, 0.1842188, -0.2385936, 0.03296876,80.81176,5,4,30
67858,-2.455201,-1.537048,995.8401,-1,0.7705078, -0.1308594, 0.6767578, 0.1529688, -0.3010936, 0.09546876,80.81176,5,4,30
67920,-3.490754,-4.526306,995.9479,-1,0.7714844, -0.1303711, 0.6767578, 0.1842188, -0.3010936, 0.04859376,80.81176,5,4,30
67984,-3.605637,-3.72052,995.9189,10.41148,0.7729492, -0.1318359, 0.6757813, 0.1998438, -0.3323436, 0.09546876,80.81176,5,4,30
68055,-3.520119,-3.434601,995.9085,-1,0.7724609, -0.1313477, 0.6762695, 0.1529688, -0.2854686, 0.04859376,80.81176,5,4,30
68121,-3.767612,-4.015106,995.9295,10.41148,0.7729492, -0.1308594, 0.6762695, 0.1685938, -0.2854686, 0.09546876,80.81176,5,4,30
68187,-3.744066,-3.72052,995.9189,10.41148,0.7719727, -0.1313477, 0.6791992, 0.1685938, -0.3167186, 0.09546876,80.81176,5,4,30
68258,-2.094705,-0.445343,995.8006,10.40689,0.7719727, -0.1308594, 0.6772461, 0.1998438, -0.2698436, 0.06421876,80.81176,5,4,30
68324,-3.310505,-4.526306,995.9479,-1,0.7709961, -0.1293945, 0.675293, 0.2154688, -0.2698436, 0.06421876,80.81176,5,4,30
68390,-3.771113,-4.23172,995.9373,-1,0.7709961, -0.1308594, 0.6743164, 0.1998438, -0.2698436, 0.06421876,80.81176,5,4,30
68567,-2.511121,-1.251129,995.8296,10.40689,0.7714844, -0.1308594, 0.6762695, 0.1998438, -0.2542186, 0.04859376,80.81176,5,4,30
68635,-3.518713,-4.526306,995.9479,-1,0.7719727, -0.1318359, 0.6772461, 0.1373438, -0.3010936, 0.03296876,80.81176,5,4,30
68702,-2.237628,-0.956543,995.819,-1,0.7724609, -0.1308594, 0.675293, 0.2154688, -0.2542186, 0.06421876,80.81176,5,4,30
68772,-3.381967,-4.526306,995.9479,-1,0.7744141, -0.1308594, 0.6772461, 0.1685938, -0.3167186, 0.07984376,80.81176,5,4,30
68843,-2.862416,-2.342865,995.8691,-1,0.7729492, -0.1313477, 0.6772461, 0.1842188, -0.3167186, 0.07984376,80.81176,5,4,30
68914,-3.694361,-4.526306,995.9479,10.42067,0.7734375, -0.1308594, 0.6767578, 0.1998438, -0.2385936, 0.09546876,80.81176,5,4,30
68985,-2.763013,-1.831665,995.8506,-1,0.7714844, -0.1303711, 0.6782227, 0.1529688, -0.2698436, 0.09546876,80.81176,5,4,30
69061,-3.241766,-3.72052,995.9189,10.4023,0.7724609, -0.1313477, 0.6762695, 0.1998438, -0.2542186, 0.1110938,80.81176,5,4,30
69134,-2.389407,-1.537048,995.8401,-1,0.7719727, -0.1303711, 0.6757813, 0.1998438, -0.2229686, 0.03296876,80.81176,5,4,30
69208,-2.110536,-1.831665,995.8506,10.42067,0.7729492, -0.1298828, 0.6772461, 0.1685938, -0.2542186, 0.09546876,80.81176,5,4,30
69389,-1.53354,-0.956543,995.819,-1,0.7709961, -0.1318359, 0.6772461, 0.1842188, -0.2229686, 0.07984376,80.81176,5,4,30
69464,-2.62703,-3.72052,995.9189,-1,0.7724609, -0.1313477, 0.6782227, 0.1998438, -0.3010936, 0.06421876,80.81176,5,4,30
69538,-3.321068,-4.015106,995.9295,10.41608,0.7714844, -0.1303711, 0.6757813, 0.1842188, -0.2698436, 0.09546876,80.81176,5,4,30
69611,-3.122219,-2.92337,995.8901,-1,0.7719727, -0.1318359, 0.6767578, 0.1685938, -0.2385936, 0.04859376,80.81176,5,4,30
69690,-3.715956,-4.309692,995.9401,10.42526,0.7724609, -0.1298828, 0.6787109, 0.1685938, -0.2698436, 0.06421876,80.81176,5,4,30
69766,-2.77381,-1.831665,995.8506,-1,0.7729492, -0.1313477, 0.6782227, 0.1842188, -0.2073436, 0.06421876,80.81176,5,4,30
69844,-3.684726,-4.595642,995.9506,-1,0.7734375, -0.1313477, 0.6767578, 0.1998438, -0.2229686, 0.03296876,80.81176,5,4,30
69924,-3.849916,-4.015106,995.9295,10.41608,0.7729492, -0.1328125, 0.6748047, 0.2154688, -0.2698436, 0.09546876,80.81176,5,4,30
70003,-3.932511,-4.015106,995.9295,-1,0.7729492, -0.1308594, 0.6791992, 0.1685938, -0.1917186, 0.07984376,80.81176,5,4,30
70083,-2.73478,-1.537048,995.8401,10.41608,0.7724609, -0.1308594, 0.6767578, 0.1529688, -0.2542186, 0.1110938,80.81176,5,4,30
70270,-3.522236,-4.309692,995.9401,-1,0.7714844, -0.1308594, 0.6757813, 0.2310938, -0.2385936, 0.07984376,80.81176,5,4,30
70351,-3.915964,-4.309692,995.9401,10.42526,0.7719727, -0.1293945, 0.6772461, 0.1685938, -0.2542186, 0.07984376,80.81176,5,4,30
70435,-2.327947,-0.7399292,995.8113,-1,0.7729492, -0.1303711, 0.6772461, 0.2154688, -0.2698436, 0.07984376,80.81176,5,4,30
70516,-3.461794,-4.595642,995.9506,-1,0.7734375, -0.1303711, 0.6777344, 0.1998438, -0.2385936, 0.06421876,80.81176,5,4,30
70647,-4.028718,-4.595642,995.9506,10.42985,0.7719727, -0.1303711, 0.675293, 0.1685938, -0.2698436, 0.1110938,80.81176,5,4,30
70709,-3.476044,-2.92337,995.8901,-1,0.7719727, -0.1308594, 0.6767578, 0.1685938, -0.2229686, 0.09546876,80.81176,5,4,30
70771,-3.199707,-2.92337,995.8901,-1,0.7724609, -0.1323242, 0.6787109, 0.1842188, -0.3479686, 0.06421876,80.81176,5,4,30
70835,-3.607407,-4.015106,995.9295,-1,0.7724609, -0.1298828, 0.6762695, 0.1998438, -0.3010936, 0.06421876,80.81176,5,4,30
70898,-4.504417,-5.401428,995.9796,-1,0.7724609, -0.1308594, 0.6762695, 0.2467188, -0.3323436, 0.1110938,80.81176,5,4,30
70962,-3.861202,-3.217987,995.9007,10.42067,0.7729492, -0.1328125, 0.6782227, 0.1685938, -0.2854686, 0.09546876,80.81176,5,4,30
71136,-4.228422,-4.595642,995.9506,-1,0.7724609, -0.1303711, 0.6748047, 0.1842188, -0.2385936, 0.06421876,80.81176,5,4,30
71200,-4.412032,-4.595642,995.9506,-1,0.7714844, -0.1303711, 0.675293, 0.1998438, -0.3010936, 0.09546876,80.81176,5,4,30
71267,-4.503837,-4.595642,995.9506,-1,0.7734375, -0.1298828, 0.6767578, 0.1842188, -0.2698436, 0.06421876,80.81176,5,4,30
71337,-3.458004,-2.41217,995.8717,10.42526,0.7729492, -0.1318359, 0.6767578, 0.1998438, -0.2854686, 0.07984376,80.81176,5,4,30
71406,-1.700392,0.05722046,995.7824,-1,0.7729492, -0.1323242, 0.6772461, 0.2310938, -0.2698436, 0.04859376,80.81176,5,4,30
71475,-1.913321,-2.126251,995.8613,10.43444,0.7724609, -0.1313477, 0.6772461, 0.1842188, -0.2698436, 0.06421876,80.81176,5,4,30
71556,-3.254482,-4.595642,995.9506,10.42067,0.7719727, -0.1318359, 0.6762695, 0.1998438, -0.2854686, 0.07984376,80.81176,5,4,30
71627,-4.219648,-5.184814,995.9716,-1,0.7734375, -0.1303711, 0.6757813, 0.2154688, -0.2542186, 0.04859376,80.81176,5,4,30
71698,-4.702231,-5.184814,995.9716,10.42526,0.7719727, -0.1318359, 0.6762695, 0.2310938, -0.2385936, 0.1110938,80.81176,5,4,30
71770,-4.505962,-4.309692,995.9401,10.42526,0.7719727, -0.1303711, 0.6757813, 0.2154688, -0.2385936, 0.07984376,80.81176,5,4,30
71953,-4.004934,-3.503906,995.9112,10.43444,0.7719727, -0.1313477, 0.675293, 0.1685938, -0.3010936, 0.06421876,80.81176,5,4,30
72025,-3.503154,-3.001373,995.8928,-1,0.7729492, -0.1313477, 0.6743164, 0.1842188, -0.2854686, 0.06421876,80.81176,5,4,30
72095,-4.343984,-5.184814,995.9716,-1,0.7719727, -0.1323242, 0.6757813, 0.1998438, -0.2698436, 0.06421876,80.81176,5,4,30
72169,-4.7644,-5.184814,995.9716,-1,0.7714844, -0.1293945, 0.6791992, 0.1529688, -0.2698436, 0.04859376,80.81176,5,4,30
72242,-3.588285,-2.41217,995.8717,-1,0.7719727, -0.1313477, 0.6762695, 0.1842188, -0.2229686, 0.07984376,80.81176,5,4,30
72315,-3.294829,-3.001373,995.8928,-1,0.7719727, -0.1323242, 0.6787109, 0.1998438, -0.2385936, 0.04859376,80.81176,5,4,30
72390,-4.638397,-5.981964,996.0005,-1,0.7729492, -0.1318359, 0.675293, 0.1998438, -0.2698436, 0.04859376,80.81176,5,4,30
72468,-3.672577,-2.706757,995.8822,-1,0.7719727, -0.1318359, 0.6748047, 0.1529688, -0.2385936, 0.1110938,80.81176,5,4,30
72543,-2.245239,-0.8179016,995.814,-1,0.7724609, -0.1308594, 0.6762695, 0.2310938, -0.2542186, 0.01734376,80.81176,5,4,30
72624,-1.53157,-0.8179016,995.814,10.43444,0.7709961, -0.1303711, 0.6772461, 0.1529688, -0.2385936, 0.06421876,80.81176,5,4,30
72814,-1.317696,-1.103821,995.8245,-1,0.7719727, -0.1318359, 0.675293, 0.1685938, -0.2854686, 0.06421876,80.81176,5,4,30
72894,-1.864933,-2.41217,995.8717,10.42526,0.7729492, -0.1313477, 0.6762695, 0.1998438, -0.3010936, 0.1267188,80.81176,5,4,30
72972,-3.377581,-4.890228,995.9611,-1,0.7744141, -0.1318359, 0.6767578, 0.1842188, -0.3635936, 0.1267188,80.81176,5,4,30
73049,-3.189477,-3.001373,995.8928,-1,0.7680664, -0.140625, 0.6855469, 0.1217188, 0.1832814, 0.1267188,80.81176,5,4,30
73129,-4.039853,-4.890228,995.9611,10.42526,0.7685547, -0.1337891, 0.6801758, 0.1685938, 0.01140642, 0.09546876,80.81176,5,4,30
73211,-2.974745,-1.909637,995.8533,-1,0.7695313, -0.1323242, 0.675293, 0.1373438, -0.2698436, 0.09546876,80.81176,5,4,30
73291,-4.370048,-5.76535,995.9929,-1,0.7719727, -0.1308594, 0.6791992, 0.1842188, -0.2073436, 0.04859376,80.81176,5,4,30
73430,-3.82867,-3.287292,995.9034,-1,0.7724609, -0.1308594, 0.6743164, 0.1529688, -0.2854686, 0.06421876,80.81176,5,4,30
73492,-3.267713,-2.706757,995.8822,-1,0.7729492, -0.1303711, 0.6782227, 0.1998438, -0.2385936, 0.09546876,80.81176,5,4,30
73555,-3.134543,-3.001373,995.8928,10.43903,0.7719727, -0.1323242, 0.6772461, 0.1998438, -0.2385936, 0.07984376,80.81176,5,4,30
73729,-4.449947,-5.76535,995.9929,10.44362,0.7724609, -0.1298828, 0.6767578, 0.1373438, -0.2385936, 0.01734376,80.81176,5,4,30
73792,-5.107649,-5.76535,995.9929,-1,0.7719727, -0.1298828, 0.6762695, 0.1998438, -0.2854686, 0.1423438,80.81176,5,4,30
73857,-4.998939,-4.890228,995.9611,-1,0.7724609, -0.1318359, 0.6772461, 0.1685938, -0.3323436, 0.04859376,80.81176,5,4,30
73923,-5.234851,-5.470764,995.9822,10.44362,0.7753906, -0.1318359, 0.6757813, 0.2310938, -0.3323436, 0.06421876,80.81176,5,4,30
73989,-3.823511,-2.41217,995.8717,10.44362,0.7719727, -0.1323242, 0.675293, 0.1529688, -0.3010936, 0.06421876,80.81176,5,4,30
74056,-3.412442,-3.001373,995.8928,-1,0.7744141, -0.1308594, 0.6777344, 0.1842188, -0.3323436, 0.06421876,80.81176,5,4,30
74126,-3.206908,-3.001373,995.8928,10.44362,0.7729492, -0.1328125, 0.6767578, 0.2154688, -0.2698436, 0.04859376,80.81176,5,4,30
74197,-2.84854,-2.490173,995.8745,10.44822,0.769043, -0.1220703, 0.6821289, 0.09046877, 0.6051564, 0.07984376,80.81176,5,4,30
74269,-2.123489,-1.398438,995.8351,10.43444,0.7636719, -0.1381836, 0.6738281, 0.1998438, -0.6917186, 0.03296876,80.81176,5,4,30
74340,-1.760963,-1.398438,995.8351,10.44362,0.7758789, -0.1308594, 0.6816406, 0.1998438, -0.1135936, 0.06421876,80.81176,5,4,30
74521,-3.763157,-5.76535,995.9929,-1,0.7729492, -0.1313477, 0.6787109, 0.2154688, -0.2698436, 0.06421876,80.81176,5,4,30
74592,-2.433489,-1.103821,995.8245,-1,0.7724609, -0.1323242, 0.6757813, 0.2467188, -0.2385936, 0.1110938,80.81176,5,4,30
74667,-4.09942,-5.76535,995.9929,10.44362,0.7714844, -0.1313477, 0.6762695, 0.2467188, -0.2542186, 0.04859376,80.81176,5,4,30
74737,-3.840649,-3.581879,995.914,-1,0.7724609, -0.1303711, 0.6767578, 0.2310938, -0.2698436, 0.06421876,80.81176,5,4,30
74809,-3.711264,-3.581879,995.914,-1,0.7753906, -0.1303711, 0.6772461, 0.2467188, -0.2542186, 0.1110938,80.81176,5,4,30
74884,-3.646571,-3.581879,995.914,10.44822,0.7719727, -0.1318359, 0.6777344, 0.1998438, -0.2854686, 0.07984376,80.81176,5,4,30
74960,-3.323972,-3.001373,995.8928,-1,0.7724609, -0.1318359, 0.6777344, 0.1373438, -0.2854686, 0.09546876,80.81176,5,4,30
75032,-4.544662,-5.76535,995.9929,-1,0.7714844, -0.1308594, 0.6757813, 0.1842188, -0.2698436, 0.06421876,80.81176,5,4,30
75118,-4.609138,-4.673615,995.9534,10.44822,0.7729492, -0.1323242, 0.6782227, 0.1998438, -0.2854686, 0.06421876,80.81176,5,4,30
75192,-3.805256,-3.001373,995.8928,-1,0.7729492, -0.1303711, 0.6762695, 0.1842188, -0.3167186, 0.1110938,80.81176,5,4,30
75373,-3.546274,-3.287292,995.9034,10.43903,0.7729492, -0.1313477, 0.6787109, 0.2154688, -0.2542186, 0.00171876,80.81176,5,4,30
75449,-3.273824,-3.001373,995.8928,-1,0.7714844, -0.1303711, 0.675293, 0.1685938, -0.3323436, 0.03296876,80.81176,5,4,30
75530,-3.280558,-3.287292,995.9034,10.43444,0.7719727, -0.1308594, 0.675293, 0.1373438, -0.2698436, 0.04859376,80.81176,5,4,30
75607,-4.232686,-5.184814,995.9716,-1,0.7719727, -0.1313477, 0.6777344, 0.2310938, -0.1760936, 0.01734376,80.81176,5,4,30
75687,-3.61703,-3.001373,995.8928,10.44362,0.7729492, -0.1303711, 0.6757813, 0.1373438, -0.2542186, 0.09546876,80.81176,5,4,30
75770,-4.400922,-5.184814,995.9716,-1,0.7734375, -0.1313477, 0.6782227, 0.2310938, -0.3010936, 0.07984376,80.81176,5,4,30
75851,-4.792868,-5.184814,995.9716,10.43444,0.7714844, -0.1308594, 0.6772461, 0.2310938, -0.1604686, 0.07984376,80.81176,5,4,30
75934,-3.056651,-1.320435,995.8323,-1,0.7724609, -0.1313477, 0.6787109, 0.1998438, -0.2229686, 0.09546876,80.81176,5,4,30
76016,-1.64269,-0.2287292,995.7928,-1,0.7729492, -0.1303711, 0.6777344, 0.1529688, -0.2073436, 0.03296876,80.81176,5,4,30
76099,-2.322032,-3.001373,995.8928,-1,0.7734375, -0.1308594, 0.6777344, 0.1998438, -0.2698436, 0.06421876,80.81176,5,4,30
76340,-3.753423,-5.184814,995.9716,10.42526,0.7719727, -0.1318359, 0.6787109, 0.1685938, -0.2854686, 0.03296876,80.81176,5,4,30
76402,-4.174533,-4.595642,995.9506,-1,0.7724609, -0.1293945, 0.6762695, 0.1685938, -0.2073436, 0.07984376,80.81176,5,4,30
76466,-4.385087,-4.595642,995.9506,10.42526,0.7734375, -0.1289063, 0.6762695, 0.1842188, -0.2229686, 0.07984376,80.81176,5,4,30
76529,-3.944497,-3.503906,995.9112,-1,0.7729492, -0.1318359, 0.6762695, 0.1685938, -0.3010936, 0.06421876,80.81176,5,4,30
76594,-4.127095,-4.309692,995.9401,-1,0.7695313, -0.1313477, 0.6772461, 0.1998438, -0.2385936, 0.1267188,80.81176,5,4,30
76659,-3.126673,-2.126251,995.8613,10.42526,0.7734375, -0.1293945, 0.6757813, 0.1998438, -0.2698436, 0.04859376,80.81176,5,4,30
76726,-3.570889,-4.015106,995.9295,10.42526,0.7714844, -0.1313477, 0.6757813, 0.1529688, -0.2542186, 0.06421876,80.81176,5,4,30
76792,-4.083266,-4.595642,995.9506,10.41608,0.7729492, -0.1303711, 0.6762695, 0.2154688, -0.3167186, 0.04859376,80.81176,5,4,30
76858,-2.957465,-1.831665,995.8506,-1,0.7714844, -0.1298828, 0.6762695, 0.1685938, -0.3479686, 0.07984376,80.81176,5,4,30
76926,-3.087726,-3.217987,995.9007,-1,0.7729492, -0.1313477, 0.675293, 0.1373438, -0.2698436, 0.04859376,80.81176,5,4,30
77103,-2.606989,-2.126251,995.8613,10.41608,0.7670898, -0.125, 0.6782227, 0.2154688, -0.2073436, 0.04859376,80.81176,5,4,30
77170,-2.219327,-1.831665,995.8506,-1,0.7729492, -0.1303711, 0.6738281, 0.2154688, -0.3948436, 0.09546876,80.81176,5,4,30
77241,-1.479628,-0.7399292,995.8113,10.41608,0.7724609, -0.1318359, 0.6757813, 0.1842188, -0.3010936, 0.1110938,80.81176,5,4,30
77311,-3.839103,-6.198578,996.0084,-1,0.7719727, -0.1323242, 0.6772461, 0.1998438, -0.2229686, 0.07984376,80.81176,5,4,30
77382,-3.636852,-3.434601,995.9085,10.41608,0.7724609, -0.1313477, 0.6767578, 0.2310938, -0.3167186, 0.04859376,80.81176,5,4,30
77455,-2.734258,-1.831665,995.8506,-1,0.7734375, -0.1323242, 0.6787109, 0.1842188, -0.2854686, 0.09546876,80.81176,5,4,30
77526,-3.482989,-4.23172,995.9373,-1,0.7685547, -0.1337891, 0.6796875, 0.1842188, -0.09796858, 0.1267188,80.81176,5,4,30
77600,-3.749048,-4.015106,995.9295,10.41608,0.7739258, -0.1293945, 0.671875, 0.2310938, -0.4260936, 0.04859376,80.81176,5,4,30
77673,-3.882077,-4.015106,995.9295,10.41148,0.7739258, -0.1308594, 0.6748047, 0.1998438, -0.2854686, 0.09546876,80.81176,5,4,30
77744,-2.856871,-1.831665,995.8506,-1,0.7724609, -0.1337891, 0.6787109, 0.2310938, -0.2229686, 0.07984376,80.81176,5,4,30
77932,-3.145736,-3.434601,995.9085,10.41148,0.7705078, -0.1274414, 0.6757813, 0.1217188, -0.1448436, 0.06421876,80.81176,5,4,30
78009,-3.290168,-3.434601,995.9085,10.41608,0.7646484, -0.1293945, 0.6806641, 0.1217188, 0.1051564, 0.04859376,80.81176,5,4,30
78085,-3.652637,-4.015106,995.9295,10.41608,0.7719727, -0.1298828, 0.6738281, 0.2310938, -0.3792186, 0.09546876,80.81176,5,4,30
78162,-2.594843,-1.537048,995.8401,-1,0.7739258, -0.1303711, 0.6796875, 0.09046877, -0.2385936, 0.09546876,80.81176,5,4,30
78239,-3.560575,-4.526306,995.9479,-1,0.7724609, -0.1313477, 0.6757813, 0.2154688, -0.3323436, 0.1423438,80.81176,5,4,30
78315,-2.405852,-1.251129,995.8296,-1,0.7719727, -0.1318359, 0.6782227, 0.1998438, -0.2542186, 0.00171876,80.81176,5,4,30
78391,-2.374358,-2.342865,995.8691,-1,0.7724609, -0.1313477, 0.6757813, 0.1685938, -0.2229686, 0.09546876,80.81176,5,4,30
78470,-1.812744,-1.251129,995.8296,10.4023,0.7709961, -0.1308594, 0.6757813, 0.1998438, -0.3010936, 0.04859376,80.81176,5,4,30
78548,-1.276336,-0.7399292,995.8113,-1,0.7719727, -0.1293945, 0.6767578, 0.1685938, -0.2698436, 0.03296876,80.81176,5,4,30
78626,-1.662308,-2.048279,995.8585,-1,0.7719727, -0.1318359, 0.6762695, 0.1998438, -0.3167186, 0.06421876,80.81176,5,4,30
78823,-2.838707,-4.015106,995.9295,10.41608,0.7714844, -0.1328125, 0.675293, 0.2310938, -0.2698436, 0.06421876,80.81176,5,4,30
78905,-2.044918,-1.251129,995.8296,-1,0.7724609, -0.1318359, 0.675293, 0.1685938, -0.2698436, 0.07984376,80.81176,5,4,30
78989,-3.030012,-4.015106,995.9295,10.41608,0.7719727, -0.1303711, 0.6757813, 0.1685938, -0.2698436, 0.04859376,80.81176,5,4,30
79122,-3.522559,-4.015106,995.9295,10.41608,0.7729492, -0.1318359, 0.675293, 0.1373438, -0.2542186, 0.09546876,80.81176,5,4,30
79184,-3.222965,-2.92337,995.8901,10.41148,0.7729492, -0.1303711, 0.6772461, 0.2154688, -0.3010936, 0.07984376,80.81176,5,4,30
79244,-3.471742,-3.72052,995.9189,-1,0.7734375, -0.1323242, 0.6777344, 0.2310938, -0.3479686, 0.06421876,80.81176,5,4,30
79311,-3.890718,-4.309692,995.9401,10.42067,0.7709961, -0.1313477, 0.6762695, 0.1998438, -0.2854686, 0.04859376,80.81176,5,4,30
79378,-3.805619,-3.72052,995.9189,10.41608,0.7719727, -0.1318359, 0.6772461, 0.2154688, -0.3010936, 0.07984376,80.81176,5,4,30
79443,-3.910362,-4.015106,995.9295,-1,0.7739258, -0.1303711, 0.6796875, 0.1998438, -0.2698436, 0.07984376,80.81176,5,4,30
79506,-3.707134,-3.503906,995.9112,-1,0.7729492, -0.1289063, 0.6767578, 0.1842188, -0.2698436, 0.01734376,80.81176,5,4,30
79682,-2.916693,-2.126251,995.8613,-1,0.7734375, -0.1318359, 0.6757813, 0.1529688, -0.2385936, 0.09546876,80.81176,5,4,30
79749,-3.06734,-3.217987,995.9007,-1,0.7705078, -0.1308594, 0.6762695, 0.2467188, -0.2542186, 0.03296876,80.81176,5,4,30
79816,-3.831491,-4.595642,995.9506,-1,0.7749023, -0.128418, 0.6743164, 0.1373438, -0.3792186, 0.1110938,80.81176,5,4,30
79886,-2.831578,-1.831665,995.8506,10.42526,0.7714844, -0.1318359, 0.6762695, 0.2154688, -0.2698436, 0.09546876,80.81176,5,4,30
79951,-2.621874,-2.41217,995.8717,-1,0.7729492, -0.1303711, 0.6777344, 0.1842188, -0.2698436, 0.07984376,80.81176,5,4,30
80023,-2.22677,-1.831665,995.8506,10.42067,0.7709961, -0.1318359, 0.6767578, 0.1529688, -0.3010936, 0.06421876,80.81176,5,4,30
80094,-2.31947,-2.41217,995.8717,-1,0.7714844, -0.1289063, 0.675293, 0.1842188, -0.3167186, 0.1110938,80.81176,5,4,30
80162,-3.457556,-4.595642,995.9506,-1,0.7709961, -0.1303711, 0.6777344, 0.1842188, -0.3323436, 0.04859376,80.81176,5,4,30
80231,-2.791903,-2.126251,995.8613,-1,0.7734375, -0.1308594, 0.6782227, 0.2154688, -0.3167186, 0.07984376,80.81176,5,4,30
80303,-3.841066,-4.890228,995.9611,-1,0.7734375, -0.1303711, 0.6757813, 0.1217188, -0.2229686, 0.06421876,80.81176,5,4,30
80482,-3.126618,-2.41217,995.8717,-1,0.7714844, -0.1313477, 0.6767578, 0.1685938, -0.2854686, 0.03296876,80.81176,5,4,30
80554,-3.86113,-4.595642,995.9506,-1,0.7714844, -0.1298828, 0.6767578, 0.1373438, -0.2229686, 0.09546876,80.81176,5,4,30
80630,-2.885384,-1.909637,995.8533,-1,0.7714844, -0.1318359, 0.6767578, 0.1998438, -0.2698436, 0.06421876,80.81176,5,4,30
80703,-2.79607,-2.706757,995.8822,10.43444,0.7734375, -0.1293945, 0.6772461, 0.1529688, -0.2385936, 0.03296876,80.81176,5,4,30
80780,-2.60412,-2.41217,995.8717,10.43444,0.7709961, -0.1303711, 0.6743164, 0.1217188, -0.2698436, 0.1110938,80.81176,5,4,30
80856,-1.962277,-1.320435,995.8323,-1,0.7705078, -0.1303711, 0.6772461, 0.1842188, -0.2542186, 0.06421876,80.81176,5,4,30
80933,-3.027678,-4.093079,995.9323,-1,0.7719727, -0.1313477, 0.6787109, 0.2310938, -0.2854686, 0.07984376,80.81176,5,4,30
81009,-4.106246,-5.184814,995.9716,-1,0.7724609, -0.1313477, 0.6777344, 0.1685938, -0.2854686, 0.09546876,80.81176,5,4,30
81090,-3.155235,-2.204224,995.864,10.42526,0.7729492, -0.1303711, 0.6757813, 0.1685938, -0.2542186, 0.1423438,80.81176,5,4,30
81169,-3.221264,-3.287292,995.9034,-1,0.7734375, -0.1318359, 0.6762695, 0.1998438, -0.3323436, 0.1267188,80.81176,5,4,30
81357,-2.565451,-1.909637,995.8533,-1,0.7719727, -0.1308594, 0.6743164, 0.2310938, -0.2698436, 0.09546876,80.81176,5,4,30
81436,-4.165401,-5.76535,995.9929,-1,0.7714844, -0.1308594, 0.6767578, 0.1685938, -0.3323436, 0.09546876,80.81176,5,4,30
81518,-3.726346,-3.287292,995.9034,10.44362,0.7729492, -0.1289063, 0.6767578, 0.1998438, -0.3010936, 0.09546876,80.81176,5,4,30
81600,-3.654113,-3.581879,995.914,10.43444,0.7724609, -0.1318359, 0.6762695, 0.1842188, -0.2698436, 0.09546876,80.81176,5,4,30
81682,-3.470703,-3.287292,995.9034,-1,0.7719727, -0.1298828, 0.6777344, 0.1685938, -0.2698436, 0.03296876,80.81176,5,4,30
81763,-4.618027,-5.76535,995.9929,-1,0.7719727, -0.1303711, 0.6772461, 0.1998438, -0.3167186, 0.07984376,80.81176,5,4,30
81892,-3.95266,-3.287292,995.9034,-1,0.7719727, -0.1313477, 0.6777344, 0.2310938, -0.2229686, 0.01734376,80.81176,5,4,30
81955,-3.767269,-3.581879,995.914,10.44362,0.7734375, -0.1298828, 0.6767578, 0.1998438, -0.3010936, 0.09546876,80.81176,5,4,30
82016,-2.184278,-0.6012878,995.8062,-1,0.7719727, -0.1303711, 0.6762695, 0.2310938, -0.2854686, 0.04859376,80.81176,5,4,30
82080,-2.337226,-2.490173,995.8745,-1,0.7714844, -0.1337891, 0.675293, 0.2467188, -0.3010936, 0.06421876,80.81176,5,4,30
82252,-2.560993,-2.78476,995.885,10.44822,0.7714844, -0.1333008, 0.6757813, 0.1842188, -0.2542186, 0.1267188,80.81176,5,4,30
82318,-3.071436,-3.581879,995.914,-1,0.7729492, -0.1313477, 0.6777344, 0.2310938, -0.2385936, 0.04859376,80.81176,5,4,30
82393,-3.326657,-3.581879,995.914,-1,0.7729492, -0.1289063, 0.6757813, 0.1373438, -0.2854686, 0.07984376,80.81176,5,4,30
82460,-3.454268,-3.581879,995.914,10.44362,0.7714844, -0.1318359, 0.6772461, 0.1529688, -0.2698436, 0.04859376,80.81176,5,4,30
82530,-3.119514,-2.78476,995.885,10.45281,0.7724609, -0.1303711, 0.6762695, 0.2154688, -0.2385936, 0.1267188,80.81176,5,4,30
82594,-2.258976,-1.398438,995.8351,-1,0.7719727, -0.1303711, 0.675293, 0.1842188, -0.2698436, 0.06421876,80.81176,5,4,30
82664,-1.828707,-1.398438,995.8351,-1,0.7709961, -0.1308594, 0.6762695, 0.1842188, -0.2698436, 0.09546876,80.81176,5,4,30
